"Trial"	"Code"	"ResponseCode"	"Accuracy"	"RT"	"cumTime"	"Subject"	"Congruency"	"Task"	"Gender"	"Race"	"Valence"	"Switch"
1	70	12	1	146	302	"005"	"congruent"	"Word"	NA	NA	"Bad"	NA
2	80	11	1	125	581	"005"	"congruent"	"Word"	NA	NA	"Good"	"Stay"
3	60	12	1	144	838	"005"	"congruent"	"Name"	"Female"	"Black"	NA	"Switch"
4	60	12	1	150	1114	"005"	"congruent"	"Name"	"Female"	"Black"	NA	"Stay"
5	70	12	1	152	1394	"005"	"congruent"	"Word"	NA	NA	"Bad"	"Switch"
6	61	12	1	139	1678	"005"	"congruent"	"Name"	"Male"	"Black"	NA	"Switch"
7	62	11	1	135	1947	"005"	"congruent"	"Name"	"Female"	"White"	NA	"Stay"
8	80	11	1	127	2214	"005"	"congruent"	"Word"	NA	NA	"Good"	"Switch"
9	63	11	1	136	2474	"005"	"congruent"	"Name"	"Male"	"White"	NA	"Switch"
10	63	11	1	138	2740	"005"	"congruent"	"Name"	"Male"	"White"	NA	"Stay"
11	63	11	1	141	3010	"005"	"congruent"	"Name"	"Male"	"White"	NA	"Stay"
12	80	11	1	113	3283	"005"	"congruent"	"Word"	NA	NA	"Good"	"Switch"
13	60	12	1	119	3527	"005"	"congruent"	"Name"	"Female"	"Black"	NA	"Switch"
14	61	12	1	105	3777	"005"	"congruent"	"Name"	"Male"	"Black"	NA	"Stay"
15	62	2	0	109	4013	"005"	"congruent"	"Name"	"Female"	"White"	NA	"Stay"
16	70	12	1	201	4380	"005"	"congruent"	"Word"	NA	NA	"Bad"	"Switch"
17	70	12	1	150	4713	"005"	"congruent"	"Word"	NA	NA	"Bad"	"Stay"
18	62	11	1	186	4996	"005"	"congruent"	"Name"	"Female"	"White"	NA	"Switch"
19	80	11	1	123	5316	"005"	"congruent"	"Word"	NA	NA	"Good"	"Switch"
20	63	2	0	125	5572	"005"	"congruent"	"Name"	"Male"	"White"	NA	"Switch"
21	80	11	1	257	5955	"005"	"congruent"	"Word"	NA	NA	"Good"	"Switch"
22	61	12	1	150	6345	"005"	"congruent"	"Name"	"Male"	"Black"	NA	"Switch"
23	63	11	1	200	6628	"005"	"congruent"	"Name"	"Male"	"White"	NA	"Stay"
24	70	12	1	195	6958	"005"	"congruent"	"Word"	NA	NA	"Bad"	"Switch"
25	60	1	0	177	7285	"005"	"congruent"	"Name"	"Female"	"Black"	NA	"Switch"
26	62	11	1	210	7721	"005"	"congruent"	"Name"	"Female"	"White"	NA	"Stay"
27	80	11	1	253	8061	"005"	"congruent"	"Word"	NA	NA	"Good"	"Switch"
28	62	11	1	154	8444	"005"	"congruent"	"Name"	"Female"	"White"	NA	"Switch"
29	62	11	1	104	8731	"005"	"congruent"	"Name"	"Female"	"White"	NA	"Stay"
30	63	2	0	189	8967	"005"	"congruent"	"Name"	"Male"	"White"	NA	"Stay"
31	70	12	1	308	9414	"005"	"congruent"	"Word"	NA	NA	"Bad"	"Switch"
32	61	12	1	299	9854	"005"	"congruent"	"Name"	"Male"	"Black"	NA	"Switch"
33	60	12	1	160	10283	"005"	"congruent"	"Name"	"Female"	"Black"	NA	"Stay"
34	60	12	1	107	10573	"005"	"congruent"	"Name"	"Female"	"Black"	NA	"Stay"
35	80	11	1	133	10813	"005"	"congruent"	"Word"	NA	NA	"Good"	"Switch"
36	61	12	1	157	11076	"005"	"congruent"	"Name"	"Male"	"Black"	NA	"Switch"
37	70	12	1	152	11366	"005"	"congruent"	"Word"	NA	NA	"Bad"	"Switch"
38	63	2	0	132	11649	"005"	"congruent"	"Name"	"Male"	"White"	NA	"Switch"
39	63	11	1	132	12039	"005"	"congruent"	"Name"	"Male"	"White"	NA	"Stay"
40	70	12	1	157	12302	"005"	"congruent"	"Word"	NA	NA	"Bad"	"Switch"
41	62	11	1	142	12592	"005"	"congruent"	"Name"	"Female"	"White"	NA	"Switch"
42	80	11	1	177	12865	"005"	"congruent"	"Word"	NA	NA	"Good"	"Switch"
43	61	12	1	186	13175	"005"	"congruent"	"Name"	"Male"	"Black"	NA	"Switch"
44	60	12	1	142	13492	"005"	"congruent"	"Name"	"Female"	"Black"	NA	"Stay"
45	61	12	1	126	13765	"005"	"congruent"	"Name"	"Male"	"Black"	NA	"Stay"
46	61	12	1	147	14022	"005"	"congruent"	"Name"	"Male"	"Black"	NA	"Stay"
47	70	12	1	133	14301	"005"	"congruent"	"Word"	NA	NA	"Bad"	"Switch"
48	63	11	1	152	14565	"005"	"congruent"	"Name"	"Male"	"White"	NA	"Switch"
49	62	11	1	115	14848	"005"	"congruent"	"Name"	"Female"	"White"	NA	"Stay"
50	80	11	1	133	15094	"005"	"congruent"	"Word"	NA	NA	"Good"	"Switch"
51	61	12	1	137	15358	"005"	"congruent"	"Name"	"Male"	"Black"	NA	"Switch"
52	60	12	1	157	15627	"005"	"congruent"	"Name"	"Female"	"Black"	NA	"Stay"
53	60	12	1	119	15917	"005"	"congruent"	"Name"	"Female"	"Black"	NA	"Stay"
54	61	12	1	138	16167	"005"	"congruent"	"Name"	"Male"	"Black"	NA	"Stay"
55	62	11	1	145	16437	"005"	"congruent"	"Name"	"Female"	"White"	NA	"Stay"
56	63	11	1	140	16714	"005"	"congruent"	"Name"	"Male"	"White"	NA	"Stay"
57	80	11	1	131	16987	"005"	"congruent"	"Word"	NA	NA	"Good"	"Switch"
58	61	12	1	150	17250	"005"	"congruent"	"Name"	"Male"	"Black"	NA	"Switch"
59	60	12	1	138	17533	"005"	"congruent"	"Name"	"Female"	"Black"	NA	"Stay"
60	70	12	1	171	17803	"005"	"congruent"	"Word"	NA	NA	"Bad"	"Switch"
61	63	11	1	115	18106	"005"	"congruent"	"Name"	"Male"	"White"	NA	"Switch"
62	62	11	1	111	18353	"005"	"congruent"	"Name"	"Female"	"White"	NA	"Stay"
63	61	12	1	158	18596	"005"	"congruent"	"Name"	"Male"	"Black"	NA	"Stay"
64	60	1	0	195	18886	"005"	"congruent"	"Name"	"Female"	"Black"	NA	"Stay"
65	NA	2	0	NA	NA	"005"	"congruent"	"Name"	NA	NA	NA	"Stay"
66	80	11	1	299	19339	"005"	"congruent"	"Word"	NA	NA	"Good"	"Switch"
67	62	11	1	110	19769	"005"	"congruent"	"Name"	"Female"	"White"	NA	"Switch"
68	62	11	1	110	20012	"005"	"congruent"	"Name"	"Female"	"White"	NA	"Stay"
69	70	1	0	100	20255	"005"	"congruent"	"Word"	NA	NA	"Bad"	"Switch"
70	63	2	0	212	20615	"005"	"congruent"	"Name"	"Male"	"White"	NA	"Switch"
71	63	11	1	350	21085	"005"	"congruent"	"Name"	"Male"	"White"	NA	"Stay"
72	63	12	1	158	21568	"005"	"congruent"	"Name"	"Male"	"White"	NA	"Stay"
73	61	12	1	182	21858	"005"	"congruent"	"Name"	"Male"	"Black"	NA	"Stay"
74	80	11	1	149	22171	"005"	"congruent"	"Word"	NA	NA	"Good"	"Switch"
75	60	12	1	150	22451	"005"	"congruent"	"Name"	"Female"	"Black"	NA	"Switch"
76	60	12	1	128	22734	"005"	"congruent"	"Name"	"Female"	"Black"	NA	"Stay"
77	63	11	1	190	22994	"005"	"congruent"	"Name"	"Male"	"White"	NA	"Stay"
78	70	12	1	169	23317	"005"	"congruent"	"Word"	NA	NA	"Bad"	"Switch"
79	60	12	1	150	23617	"005"	"congruent"	"Name"	"Female"	"Black"	NA	"Switch"
80	63	11	1	218	23900	"005"	"congruent"	"Name"	"Male"	"White"	NA	"Stay"
81	80	11	1	219	24250	"005"	"congruent"	"Word"	NA	NA	"Good"	"Switch"
82	70	12	1	186	24600	"005"	"congruent"	"Word"	NA	NA	"Bad"	"Stay"
83	61	12	1	119	24916	"005"	"congruent"	"Name"	"Male"	"Black"	NA	"Switch"
84	60	12	1	126	25166	"005"	"congruent"	"Name"	"Female"	"Black"	NA	"Stay"
85	63	11	1	131	25426	"005"	"congruent"	"Name"	"Male"	"White"	NA	"Stay"
86	70	12	1	151	25689	"005"	"congruent"	"Word"	NA	NA	"Bad"	"Switch"
87	62	11	1	150	25972	"005"	"congruent"	"Name"	"Female"	"White"	NA	"Switch"
88	60	12	1	126	26256	"005"	"congruent"	"Name"	"Female"	"Black"	NA	"Stay"
89	62	11	1	115	26516	"005"	"congruent"	"Name"	"Female"	"White"	NA	"Stay"
90	61	12	1	230	26762	"005"	"congruent"	"Name"	"Male"	"Black"	NA	"Stay"
91	63	2	0	185	27125	"005"	"congruent"	"Name"	"Male"	"White"	NA	"Stay"
92	70	12	1	242	27568	"005"	"congruent"	"Word"	NA	NA	"Bad"	"Switch"
93	70	12	1	167	27942	"005"	"congruent"	"Word"	NA	NA	"Bad"	"Stay"
94	63	12	1	138	28241	"005"	"congruent"	"Name"	"Male"	"White"	NA	"Switch"
95	60	12	1	127	28511	"005"	"congruent"	"Name"	"Female"	"Black"	NA	"Stay"
96	62	11	1	108	28771	"005"	"congruent"	"Name"	"Female"	"White"	NA	"Stay"
97	80	11	1	99	29011	"005"	"congruent"	"Word"	NA	NA	"Good"	"Switch"
98	62	11	1	115	29241	"005"	"congruent"	"Name"	"Female"	"White"	NA	"Switch"
99	80	11	1	110	29487	"005"	"congruent"	"Word"	NA	NA	"Good"	"Switch"
100	63	11	1	160	29731	"005"	"congruent"	"Name"	"Male"	"White"	NA	"Switch"
101	63	11	1	111	30024	"005"	"congruent"	"Name"	"Male"	"White"	NA	"Stay"
102	70	12	1	169	30267	"005"	"congruent"	"Word"	NA	NA	"Bad"	"Switch"
103	60	1	0	139	30567	"005"	"congruent"	"Name"	"Female"	"Black"	NA	"Switch"
104	80	11	1	168	30963	"005"	"congruent"	"Word"	NA	NA	"Good"	"Switch"
105	61	12	1	131	31263	"005"	"congruent"	"Name"	"Male"	"Black"	NA	"Switch"
106	61	12	1	146	31526	"005"	"congruent"	"Name"	"Male"	"Black"	NA	"Stay"
107	80	11	1	115	31803	"005"	"congruent"	"Word"	NA	NA	"Good"	"Switch"
108	63	11	1	175	32050	"005"	"congruent"	"Name"	"Male"	"White"	NA	"Switch"
109	70	12	1	145	32356	"005"	"congruent"	"Word"	NA	NA	"Bad"	"Switch"
110	70	12	1	151	32633	"005"	"congruent"	"Word"	NA	NA	"Bad"	"Stay"
111	62	11	1	207	32916	"005"	"congruent"	"Name"	"Female"	"White"	NA	"Switch"
112	62	11	1	110	33256	"005"	"congruent"	"Name"	"Female"	"White"	NA	"Stay"
113	61	12	1	135	33499	"005"	"congruent"	"Name"	"Male"	"Black"	NA	"Stay"
114	80	11	1	127	33765	"005"	"congruent"	"Word"	NA	NA	"Good"	"Switch"
115	60	12	1	139	34025	"005"	"congruent"	"Name"	"Female"	"Black"	NA	"Switch"
116	80	11	1	204	34295	"005"	"congruent"	"Word"	NA	NA	"Good"	"Switch"
117	63	2	0	231	34632	"005"	"congruent"	"Name"	"Male"	"White"	NA	"Switch"
118	61	12	1	154	35121	"005"	"congruent"	"Name"	"Male"	"Black"	NA	"Stay"
119	80	11	1	130	35408	"005"	"congruent"	"Word"	NA	NA	"Good"	"Switch"
120	62	11	1	165	35671	"005"	"congruent"	"Name"	"Female"	"White"	NA	"Switch"
121	70	1	0	240	35968	"005"	"congruent"	"Word"	NA	NA	"Bad"	"Switch"
122	60	1	0	134	36467	"005"	"congruent"	"Name"	"Female"	"Black"	NA	"Switch"
1	70	11	1	183	399	"005"	"incongruent"	"Word"	NA	NA	"Bad"	NA
2	80	12	1	142	713	"005"	"incongruent"	"Word"	NA	NA	"Good"	"Stay"
3	60	1	0	157	986	"005"	"incongruent"	"Name"	"Female"	"Black"	NA	"Switch"
4	60	12	1	244	1402	"005"	"incongruent"	"Name"	"Female"	"Black"	NA	"Stay"
5	70	11	1	248	1779	"005"	"incongruent"	"Word"	NA	NA	"Bad"	"Switch"
6	61	12	1	149	2159	"005"	"incongruent"	"Name"	"Male"	"Black"	NA	"Switch"
7	62	11	1	222	2438	"005"	"incongruent"	"Name"	"Female"	"White"	NA	"Stay"
8	80	12	1	203	2792	"005"	"incongruent"	"Word"	NA	NA	"Good"	"Switch"
9	63	11	1	150	3128	"005"	"incongruent"	"Name"	"Male"	"White"	NA	"Switch"
10	63	11	1	202	3408	"005"	"incongruent"	"Name"	"Male"	"White"	NA	"Stay"
11	63	2	0	367	3741	"005"	"incongruent"	"Name"	"Male"	"White"	NA	"Stay"
12	80	12	1	380	4368	"005"	"incongruent"	"Word"	NA	NA	"Good"	"Switch"
13	60	1	0	387	4881	"005"	"incongruent"	"Name"	"Female"	"Black"	NA	"Switch"
14	61	12	1	256	5527	"005"	"incongruent"	"Name"	"Male"	"Black"	NA	"Stay"
15	62	11	1	249	5913	"005"	"incongruent"	"Name"	"Female"	"White"	NA	"Stay"
16	70	11	1	301	6293	"005"	"incongruent"	"Word"	NA	NA	"Bad"	"Switch"
17	70	2	0	285	6726	"005"	"incongruent"	"Word"	NA	NA	"Bad"	"Stay"
18	62	11	1	316	7269	"005"	"incongruent"	"Name"	"Female"	"White"	NA	"Switch"
19	80	12	1	234	7716	"005"	"incongruent"	"Word"	NA	NA	"Good"	"Switch"
20	63	11	1	219	8082	"005"	"incongruent"	"Name"	"Male"	"White"	NA	"Switch"
21	80	12	1	183	8432	"005"	"incongruent"	"Word"	NA	NA	"Good"	"Switch"
22	61	12	1	261	8749	"005"	"incongruent"	"Name"	"Male"	"Black"	NA	"Switch"
23	63	11	1	157	9142	"005"	"incongruent"	"Name"	"Male"	"White"	NA	"Stay"
24	70	11	1	235	9432	"005"	"incongruent"	"Word"	NA	NA	"Bad"	"Switch"
25	60	12	1	256	9798	"005"	"incongruent"	"Name"	"Female"	"Black"	NA	"Switch"
26	62	11	1	210	10185	"005"	"incongruent"	"Name"	"Female"	"White"	NA	"Stay"
27	80	12	1	291	10528	"005"	"incongruent"	"Word"	NA	NA	"Good"	"Switch"
28	62	11	1	134	10951	"005"	"incongruent"	"Name"	"Female"	"White"	NA	"Switch"
29	62	11	1	147	11218	"005"	"incongruent"	"Name"	"Female"	"White"	NA	"Stay"
30	63	11	1	208	11497	"005"	"incongruent"	"Name"	"Male"	"White"	NA	"Stay"
31	70	11	1	190	11837	"005"	"incongruent"	"Word"	NA	NA	"Bad"	"Switch"
32	61	12	1	193	12157	"005"	"incongruent"	"Name"	"Male"	"Black"	NA	"Switch"
33	60	12	1	114	12484	"005"	"incongruent"	"Name"	"Female"	"Black"	NA	"Stay"
34	60	12	1	100	12730	"005"	"incongruent"	"Name"	"Female"	"Black"	NA	"Stay"
35	80	1	0	153	12963	"005"	"incongruent"	"Word"	NA	NA	"Good"	"Switch"
36	61	12	1	368	13373	"005"	"incongruent"	"Name"	"Male"	"Black"	NA	"Switch"
37	70	11	1	168	13873	"005"	"incongruent"	"Word"	NA	NA	"Bad"	"Switch"
38	63	11	1	237	14173	"005"	"incongruent"	"Name"	"Male"	"White"	NA	"Switch"
39	63	11	1	121	14543	"005"	"incongruent"	"Name"	"Male"	"White"	NA	"Stay"
40	70	11	1	120	14796	"005"	"incongruent"	"Word"	NA	NA	"Bad"	"Switch"
41	62	11	1	141	15049	"005"	"incongruent"	"Name"	"Female"	"White"	NA	"Switch"
42	80	1	0	92	15322	"005"	"incongruent"	"Word"	NA	NA	"Good"	"Switch"
43	61	12	1	323	15672	"005"	"incongruent"	"Name"	"Male"	"Black"	NA	"Switch"
44	60	12	1	144	16125	"005"	"incongruent"	"Name"	"Female"	"Black"	NA	"Stay"
45	61	12	1	93	16402	"005"	"incongruent"	"Name"	"Male"	"Black"	NA	"Stay"
46	61	12	1	101	16628	"005"	"incongruent"	"Name"	"Male"	"Black"	NA	"Stay"
47	70	2	0	154	16862	"005"	"incongruent"	"Word"	NA	NA	"Bad"	"Switch"
48	63	11	1	321	17275	"005"	"incongruent"	"Name"	"Male"	"White"	NA	"Switch"
49	62	11	1	160	17728	"005"	"incongruent"	"Name"	"Female"	"White"	NA	"Stay"
50	80	12	1	161	18021	"005"	"incongruent"	"Word"	NA	NA	"Good"	"Switch"
51	61	12	1	189	18314	"005"	"incongruent"	"Name"	"Male"	"Black"	NA	"Switch"
52	60	12	1	148	18634	"005"	"incongruent"	"Name"	"Female"	"Black"	NA	"Stay"
53	60	12	1	127	18914	"005"	"incongruent"	"Name"	"Female"	"Black"	NA	"Stay"
54	61	12	1	97	19174	"005"	"incongruent"	"Name"	"Male"	"Black"	NA	"Stay"
55	62	2	0	100	19404	"005"	"incongruent"	"Name"	"Female"	"White"	NA	"Stay"
56	63	11	1	175	19763	"005"	"incongruent"	"Name"	"Male"	"White"	NA	"Stay"
57	80	12	1	288	20070	"005"	"incongruent"	"Word"	NA	NA	"Good"	"Switch"
58	61	12	1	190	20490	"005"	"incongruent"	"Name"	"Male"	"Black"	NA	"Switch"
59	60	12	1	120	20813	"005"	"incongruent"	"Name"	"Female"	"Black"	NA	"Stay"
60	70	2	0	300	21066	"005"	"incongruent"	"Word"	NA	NA	"Bad"	"Switch"
61	63	11	1	298	21626	"005"	"incongruent"	"Name"	"Male"	"White"	NA	"Switch"
62	62	11	1	101	22056	"005"	"incongruent"	"Name"	"Female"	"White"	NA	"Stay"
63	61	1	0	103	22289	"005"	"incongruent"	"Name"	"Male"	"Black"	NA	"Stay"
64	60	12	1	243	22652	"005"	"incongruent"	"Name"	"Female"	"Black"	NA	"Stay"
65	80	12	1	341	23029	"005"	"incongruent"	"Word"	NA	NA	"Good"	"Switch"
66	62	11	1	229	23502	"005"	"incongruent"	"Name"	"Female"	"White"	NA	"Switch"
67	62	11	1	159	23861	"005"	"incongruent"	"Name"	"Female"	"White"	NA	"Stay"
68	70	11	1	163	24151	"005"	"incongruent"	"Word"	NA	NA	"Bad"	"Switch"
69	63	11	1	129	24445	"005"	"incongruent"	"Name"	"Male"	"White"	NA	"Switch"
70	63	11	1	111	24708	"005"	"incongruent"	"Name"	"Male"	"White"	NA	"Stay"
71	63	12	1	130	24951	"005"	"incongruent"	"Name"	"Male"	"White"	NA	"Stay"
72	61	12	1	170	25214	"005"	"incongruent"	"Name"	"Male"	"Black"	NA	"Stay"
73	80	12	1	170	25517	"005"	"incongruent"	"Word"	NA	NA	"Good"	"Switch"
74	60	12	1	125	25821	"005"	"incongruent"	"Name"	"Female"	"Black"	NA	"Switch"
75	60	12	1	119	26077	"005"	"incongruent"	"Name"	"Female"	"Black"	NA	"Stay"
76	63	11	1	141	26327	"005"	"incongruent"	"Name"	"Male"	"White"	NA	"Stay"
77	70	11	1	193	26600	"005"	"incongruent"	"Word"	NA	NA	"Bad"	"Switch"
78	60	1	0	101	26923	"005"	"incongruent"	"Name"	"Female"	"Black"	NA	"Switch"
79	63	11	1	286	27283	"005"	"incongruent"	"Name"	"Male"	"White"	NA	"Stay"
80	80	12	1	197	27700	"005"	"incongruent"	"Word"	NA	NA	"Good"	"Switch"
81	70	11	1	154	28029	"005"	"incongruent"	"Word"	NA	NA	"Bad"	"Stay"
82	61	1	0	129	28316	"005"	"incongruent"	"Name"	"Male"	"Black"	NA	"Switch"
83	60	12	1	297	28702	"005"	"incongruent"	"Name"	"Female"	"Black"	NA	"Stay"
84	63	11	1	126	29132	"005"	"incongruent"	"Name"	"Male"	"White"	NA	"Stay"
85	70	11	1	189	29389	"005"	"incongruent"	"Word"	NA	NA	"Bad"	"Switch"
86	62	11	1	115	29709	"005"	"incongruent"	"Name"	"Female"	"White"	NA	"Switch"
87	60	12	1	146	29955	"005"	"incongruent"	"Name"	"Female"	"Black"	NA	"Stay"
88	62	2	0	102	30235	"005"	"incongruent"	"Name"	"Female"	"White"	NA	"Stay"
89	61	1	0	160	30595	"005"	"incongruent"	"Name"	"Male"	"Black"	NA	"Stay"
90	63	11	1	415	31015	"005"	"incongruent"	"Name"	"Male"	"White"	NA	"Stay"
91	70	11	1	177	31561	"005"	"incongruent"	"Word"	NA	NA	"Bad"	"Switch"
92	70	11	1	157	31871	"005"	"incongruent"	"Word"	NA	NA	"Bad"	"Stay"
93	63	1	0	180	32161	"005"	"incongruent"	"Name"	"Male"	"White"	NA	"Switch"
94	60	12	1	283	32601	"005"	"incongruent"	"Name"	"Female"	"Black"	NA	"Stay"
95	62	11	1	124	33017	"005"	"incongruent"	"Name"	"Female"	"White"	NA	"Stay"
96	80	12	1	178	33274	"005"	"incongruent"	"Word"	NA	NA	"Good"	"Switch"
97	62	11	1	167	33583	"005"	"incongruent"	"Name"	"Female"	"White"	NA	"Switch"
98	80	1	0	176	33880	"005"	"incongruent"	"Word"	NA	NA	"Good"	"Switch"
99	63	11	1	309	34313	"005"	"incongruent"	"Name"	"Male"	"White"	NA	"Switch"
100	63	11	1	147	34753	"005"	"incongruent"	"Name"	"Male"	"White"	NA	"Stay"
101	70	2	0	158	35033	"005"	"incongruent"	"Word"	NA	NA	"Bad"	"Switch"
102	60	12	1	183	35449	"005"	"incongruent"	"Name"	"Female"	"Black"	NA	"Switch"
103	80	12	1	288	35766	"005"	"incongruent"	"Word"	NA	NA	"Good"	"Switch"
104	61	12	1	130	36186	"005"	"incongruent"	"Name"	"Male"	"Black"	NA	"Switch"
105	61	12	1	116	36449	"005"	"incongruent"	"Name"	"Male"	"Black"	NA	"Stay"
106	80	12	1	213	36695	"005"	"incongruent"	"Word"	NA	NA	"Good"	"Switch"
107	63	2	0	127	37042	"005"	"incongruent"	"Name"	"Male"	"White"	NA	"Switch"
108	70	11	1	429	37428	"005"	"incongruent"	"Word"	NA	NA	"Bad"	"Switch"
109	70	2	0	155	37988	"005"	"incongruent"	"Word"	NA	NA	"Bad"	"Stay"
110	62	11	1	446	38401	"005"	"incongruent"	"Name"	"Female"	"White"	NA	"Switch"
111	62	11	1	123	38978	"005"	"incongruent"	"Name"	"Female"	"White"	NA	"Stay"
112	61	12	1	155	39234	"005"	"incongruent"	"Name"	"Male"	"Black"	NA	"Stay"
113	80	12	1	256	39521	"005"	"incongruent"	"Word"	NA	NA	"Good"	"Switch"
114	60	12	1	142	39910	"005"	"incongruent"	"Name"	"Female"	"Black"	NA	"Switch"
115	80	1	0	483	40184	"005"	"incongruent"	"Word"	NA	NA	"Good"	"Switch"
116	63	11	1	203	40927	"005"	"incongruent"	"Name"	"Male"	"White"	NA	"Switch"
117	61	12	1	162	41263	"005"	"incongruent"	"Name"	"Male"	"Black"	NA	"Stay"
118	80	12	1	138	41556	"005"	"incongruent"	"Word"	NA	NA	"Good"	"Switch"
119	62	11	1	224	41826	"005"	"incongruent"	"Name"	"Female"	"White"	NA	"Switch"
120	70	11	1	181	42183	"005"	"incongruent"	"Word"	NA	NA	"Bad"	"Switch"
121	60	12	1	192	42496	"005"	"incongruent"	"Name"	"Female"	"Black"	NA	"Switch"
1	70	12	1	247	332	"006"	"congruent"	"Word"	NA	NA	"Bad"	NA
2	80	11	1	131	712	"006"	"congruent"	"Word"	NA	NA	"Good"	"Stay"
3	60	12	1	156	975	"006"	"congruent"	"Name"	"Female"	"Black"	NA	"Switch"
4	60	12	1	121	1261	"006"	"congruent"	"Name"	"Female"	"Black"	NA	"Stay"
5	70	12	1	157	1515	"006"	"congruent"	"Word"	NA	NA	"Bad"	"Switch"
6	61	12	1	133	1804	"006"	"congruent"	"Name"	"Male"	"Black"	NA	"Switch"
7	62	11	1	197	2068	"006"	"congruent"	"Name"	"Female"	"White"	NA	"Stay"
8	80	11	1	140	2397	"006"	"congruent"	"Word"	NA	NA	"Good"	"Switch"
9	63	11	1	130	2667	"006"	"congruent"	"Name"	"Male"	"White"	NA	"Switch"
10	63	11	1	136	2931	"006"	"congruent"	"Name"	"Male"	"White"	NA	"Stay"
11	63	11	1	120	3200	"006"	"congruent"	"Name"	"Male"	"White"	NA	"Stay"
12	80	11	1	127	3454	"006"	"congruent"	"Word"	NA	NA	"Good"	"Switch"
13	60	12	1	158	3713	"006"	"congruent"	"Name"	"Female"	"Black"	NA	"Switch"
14	61	12	1	165	4003	"006"	"congruent"	"Name"	"Male"	"Black"	NA	"Stay"
15	62	11	1	174	4300	"006"	"congruent"	"Name"	"Female"	"White"	NA	"Stay"
16	70	12	1	149	4606	"006"	"congruent"	"Word"	NA	NA	"Bad"	"Switch"
17	70	12	1	141	4886	"006"	"congruent"	"Word"	NA	NA	"Bad"	"Stay"
18	62	11	1	120	5159	"006"	"congruent"	"Name"	"Female"	"White"	NA	"Switch"
19	80	2	0	171	5409	"006"	"congruent"	"Word"	NA	NA	"Good"	"Switch"
20	63	11	1	387	5839	"006"	"congruent"	"Name"	"Male"	"White"	NA	"Switch"
21	80	11	1	152	6359	"006"	"congruent"	"Word"	NA	NA	"Good"	"Switch"
22	61	12	1	161	6642	"006"	"congruent"	"Name"	"Male"	"Black"	NA	"Switch"
23	63	11	1	142	6935	"006"	"congruent"	"Name"	"Male"	"White"	NA	"Stay"
24	70	12	1	160	7208	"006"	"congruent"	"Word"	NA	NA	"Bad"	"Switch"
25	60	1	0	128	7498	"006"	"congruent"	"Name"	"Female"	"Black"	NA	"Switch"
26	62	11	1	511	7885	"006"	"congruent"	"Name"	"Female"	"White"	NA	"Stay"
27	80	11	1	138	8528	"006"	"congruent"	"Word"	NA	NA	"Good"	"Switch"
28	62	11	1	178	8798	"006"	"congruent"	"Name"	"Female"	"White"	NA	"Switch"
29	62	11	1	156	9108	"006"	"congruent"	"Name"	"Female"	"White"	NA	"Stay"
30	63	11	1	143	9394	"006"	"congruent"	"Name"	"Male"	"White"	NA	"Stay"
31	70	12	1	174	9667	"006"	"congruent"	"Word"	NA	NA	"Bad"	"Switch"
32	61	12	1	181	9974	"006"	"congruent"	"Name"	"Male"	"Black"	NA	"Switch"
33	60	12	1	146	10287	"006"	"congruent"	"Name"	"Female"	"Black"	NA	"Stay"
34	60	12	1	144	10564	"006"	"congruent"	"Name"	"Female"	"Black"	NA	"Stay"
35	80	11	1	144	10840	"006"	"congruent"	"Word"	NA	NA	"Good"	"Switch"
36	61	12	1	149	11117	"006"	"congruent"	"Name"	"Male"	"Black"	NA	"Switch"
37	70	12	1	231	11400	"006"	"congruent"	"Word"	NA	NA	"Bad"	"Switch"
38	63	11	1	163	11763	"006"	"congruent"	"Name"	"Male"	"White"	NA	"Switch"
39	63	11	1	144	12059	"006"	"congruent"	"Name"	"Male"	"White"	NA	"Stay"
40	70	1	0	147	12336	"006"	"congruent"	"Word"	NA	NA	"Bad"	"Switch"
41	62	11	1	406	12742	"006"	"congruent"	"Name"	"Female"	"White"	NA	"Switch"
42	80	11	1	151	13279	"006"	"congruent"	"Word"	NA	NA	"Good"	"Switch"
43	61	12	1	171	13562	"006"	"congruent"	"Name"	"Male"	"Black"	NA	"Switch"
44	60	1	0	220	13865	"006"	"congruent"	"Name"	"Female"	"Black"	NA	"Stay"
45	61	12	1	234	14345	"006"	"congruent"	"Name"	"Male"	"Black"	NA	"Stay"
46	61	12	1	152	14712	"006"	"congruent"	"Name"	"Male"	"Black"	NA	"Stay"
47	70	12	1	333	14995	"006"	"congruent"	"Word"	NA	NA	"Bad"	"Switch"
48	63	11	1	190	15461	"006"	"congruent"	"Name"	"Male"	"White"	NA	"Switch"
49	62	11	1	290	15784	"006"	"congruent"	"Name"	"Female"	"White"	NA	"Stay"
50	80	11	1	112	16207	"006"	"congruent"	"Word"	NA	NA	"Good"	"Switch"
51	61	12	1	189	16451	"006"	"congruent"	"Name"	"Male"	"Black"	NA	"Switch"
52	60	12	1	298	16774	"006"	"congruent"	"Name"	"Female"	"Black"	NA	"Stay"
53	60	12	1	156	17204	"006"	"congruent"	"Name"	"Female"	"Black"	NA	"Stay"
54	61	12	1	136	17490	"006"	"congruent"	"Name"	"Male"	"Black"	NA	"Stay"
55	62	11	1	165	17757	"006"	"congruent"	"Name"	"Female"	"White"	NA	"Stay"
56	63	11	1	133	18053	"006"	"congruent"	"Name"	"Male"	"White"	NA	"Stay"
57	80	11	1	172	18320	"006"	"congruent"	"Word"	NA	NA	"Good"	"Switch"
58	61	12	1	156	18623	"006"	"congruent"	"Name"	"Male"	"Black"	NA	"Switch"
59	60	12	1	301	18913	"006"	"congruent"	"Name"	"Female"	"Black"	NA	"Stay"
60	70	12	1	159	19346	"006"	"congruent"	"Word"	NA	NA	"Bad"	"Switch"
61	63	11	1	357	19636	"006"	"congruent"	"Name"	"Male"	"White"	NA	"Switch"
62	62	11	1	140	20126	"006"	"congruent"	"Name"	"Female"	"White"	NA	"Stay"
63	61	12	1	137	20399	"006"	"congruent"	"Name"	"Male"	"Black"	NA	"Stay"
64	60	12	1	220	20669	"006"	"congruent"	"Name"	"Female"	"Black"	NA	"Stay"
65	80	11	1	149	21022	"006"	"congruent"	"Word"	NA	NA	"Good"	"Switch"
66	62	11	1	161	21302	"006"	"congruent"	"Name"	"Female"	"White"	NA	"Switch"
67	62	11	1	295	21595	"006"	"congruent"	"Name"	"Female"	"White"	NA	"Stay"
68	70	12	1	157	22021	"006"	"congruent"	"Word"	NA	NA	"Bad"	"Switch"
69	63	11	1	276	22311	"006"	"congruent"	"Name"	"Male"	"White"	NA	"Switch"
70	63	11	1	141	22718	"006"	"congruent"	"Name"	"Male"	"White"	NA	"Stay"
71	63	12	1	167	22991	"006"	"congruent"	"Name"	"Male"	"White"	NA	"Stay"
72	61	12	1	189	23291	"006"	"congruent"	"Name"	"Male"	"Black"	NA	"Stay"
73	80	11	1	174	23611	"006"	"congruent"	"Word"	NA	NA	"Good"	"Switch"
74	60	12	1	166	23917	"006"	"congruent"	"Name"	"Female"	"Black"	NA	"Switch"
75	60	12	1	195	24214	"006"	"congruent"	"Name"	"Female"	"Black"	NA	"Stay"
76	63	11	1	171	24540	"006"	"congruent"	"Name"	"Male"	"White"	NA	"Stay"
77	70	12	1	151	24843	"006"	"congruent"	"Word"	NA	NA	"Bad"	"Switch"
78	60	12	1	147	25126	"006"	"congruent"	"Name"	"Female"	"Black"	NA	"Switch"
79	63	11	1	162	25406	"006"	"congruent"	"Name"	"Male"	"White"	NA	"Stay"
80	80	2	0	172	25700	"006"	"congruent"	"Word"	NA	NA	"Good"	"Switch"
81	70	1	0	249	26129	"006"	"congruent"	"Word"	NA	NA	"Bad"	"Stay"
82	61	12	1	414	26636	"006"	"congruent"	"Name"	"Male"	"Black"	NA	"Switch"
83	60	12	1	182	27182	"006"	"congruent"	"Name"	"Female"	"Black"	NA	"Stay"
84	63	11	1	288	27495	"006"	"congruent"	"Name"	"Male"	"White"	NA	"Stay"
85	70	12	1	231	27915	"006"	"congruent"	"Word"	NA	NA	"Bad"	"Switch"
86	62	11	1	180	28278	"006"	"congruent"	"Name"	"Female"	"White"	NA	"Switch"
87	60	12	1	135	28591	"006"	"congruent"	"Name"	"Female"	"Black"	NA	"Stay"
88	62	11	1	204	28858	"006"	"congruent"	"Name"	"Female"	"White"	NA	"Stay"
89	61	12	1	147	29195	"006"	"congruent"	"Name"	"Male"	"Black"	NA	"Stay"
90	63	11	1	229	29474	"006"	"congruent"	"Name"	"Male"	"White"	NA	"Stay"
91	70	12	1	164	29834	"006"	"congruent"	"Word"	NA	NA	"Bad"	"Switch"
92	70	12	1	168	30131	"006"	"congruent"	"Word"	NA	NA	"Bad"	"Stay"
93	63	12	1	155	30431	"006"	"congruent"	"Name"	"Male"	"White"	NA	"Switch"
94	60	12	1	158	30718	"006"	"congruent"	"Name"	"Female"	"Black"	NA	"Stay"
95	62	11	1	232	31007	"006"	"congruent"	"Name"	"Female"	"White"	NA	"Stay"
96	80	11	1	242	31370	"006"	"congruent"	"Word"	NA	NA	"Good"	"Switch"
97	62	11	1	210	31743	"006"	"congruent"	"Name"	"Female"	"White"	NA	"Switch"
98	80	11	1	155	32086	"006"	"congruent"	"Word"	NA	NA	"Good"	"Switch"
99	63	11	1	173	32373	"006"	"congruent"	"Name"	"Male"	"White"	NA	"Switch"
100	63	11	1	228	32680	"006"	"congruent"	"Name"	"Male"	"White"	NA	"Stay"
101	70	12	1	213	33039	"006"	"congruent"	"Word"	NA	NA	"Bad"	"Switch"
102	60	12	1	199	33386	"006"	"congruent"	"Name"	"Female"	"Black"	NA	"Switch"
103	80	11	1	144	33716	"006"	"congruent"	"Word"	NA	NA	"Good"	"Switch"
104	61	12	1	201	33992	"006"	"congruent"	"Name"	"Male"	"Black"	NA	"Switch"
105	61	12	1	142	34325	"006"	"congruent"	"Name"	"Male"	"Black"	NA	"Stay"
106	80	11	1	206	34599	"006"	"congruent"	"Word"	NA	NA	"Good"	"Switch"
107	63	11	1	227	34938	"006"	"congruent"	"Name"	"Male"	"White"	NA	"Switch"
108	70	12	1	181	35298	"006"	"congruent"	"Word"	NA	NA	"Bad"	"Switch"
109	70	12	1	134	35611	"006"	"congruent"	"Word"	NA	NA	"Bad"	"Stay"
110	62	11	1	452	35878	"006"	"congruent"	"Name"	"Female"	"White"	NA	"Switch"
111	62	11	1	121	36461	"006"	"congruent"	"Name"	"Female"	"White"	NA	"Stay"
112	61	12	1	289	36714	"006"	"congruent"	"Name"	"Male"	"Black"	NA	"Stay"
113	80	11	1	140	37134	"006"	"congruent"	"Word"	NA	NA	"Good"	"Switch"
114	60	12	1	146	37407	"006"	"congruent"	"Name"	"Female"	"Black"	NA	"Switch"
115	80	11	1	143	37684	"006"	"congruent"	"Word"	NA	NA	"Good"	"Switch"
116	63	11	1	209	37960	"006"	"congruent"	"Name"	"Male"	"White"	NA	"Switch"
117	61	12	1	148	38300	"006"	"congruent"	"Name"	"Male"	"Black"	NA	"Stay"
118	80	11	1	132	38580	"006"	"congruent"	"Word"	NA	NA	"Good"	"Switch"
119	62	11	1	138	38843	"006"	"congruent"	"Name"	"Female"	"White"	NA	"Switch"
120	70	12	1	158	39113	"006"	"congruent"	"Word"	NA	NA	"Bad"	"Switch"
121	60	12	1	159	39403	"006"	"congruent"	"Name"	"Female"	"Black"	NA	"Switch"
1	70	11	1	284	281	"006"	"incongruent"	"Word"	NA	NA	"Bad"	NA
2	80	12	1	183	698	"006"	"incongruent"	"Word"	NA	NA	"Good"	"Stay"
3	60	12	1	146	1014	"006"	"incongruent"	"Name"	"Female"	"Black"	NA	"Switch"
4	60	12	1	153	1291	"006"	"incongruent"	"Name"	"Female"	"Black"	NA	"Stay"
5	70	11	1	185	1577	"006"	"incongruent"	"Word"	NA	NA	"Bad"	"Switch"
6	61	12	1	364	1894	"006"	"incongruent"	"Name"	"Male"	"Black"	NA	"Switch"
7	62	11	1	214	2390	"006"	"incongruent"	"Name"	"Female"	"White"	NA	"Stay"
8	80	12	1	268	2737	"006"	"incongruent"	"Word"	NA	NA	"Good"	"Switch"
9	63	2	0	251	3136	"006"	"incongruent"	"Name"	"Male"	"White"	NA	"Switch"
10	63	11	1	401	3646	"006"	"incongruent"	"Name"	"Male"	"White"	NA	"Stay"
11	63	11	1	269	4179	"006"	"incongruent"	"Name"	"Male"	"White"	NA	"Stay"
12	80	12	1	553	4579	"006"	"incongruent"	"Word"	NA	NA	"Good"	"Switch"
13	60	12	1	154	5265	"006"	"incongruent"	"Name"	"Female"	"Black"	NA	"Switch"
14	61	12	1	124	5552	"006"	"incongruent"	"Name"	"Male"	"Black"	NA	"Stay"
15	62	11	1	243	5809	"006"	"incongruent"	"Name"	"Female"	"White"	NA	"Stay"
16	70	11	1	182	6185	"006"	"incongruent"	"Word"	NA	NA	"Bad"	"Switch"
17	70	11	1	166	6498	"006"	"incongruent"	"Word"	NA	NA	"Bad"	"Stay"
18	62	11	1	251	6798	"006"	"incongruent"	"Name"	"Female"	"White"	NA	"Switch"
19	80	12	1	172	7181	"006"	"incongruent"	"Word"	NA	NA	"Good"	"Switch"
20	63	11	1	271	7484	"006"	"incongruent"	"Name"	"Male"	"White"	NA	"Switch"
21	80	12	1	201	7887	"006"	"incongruent"	"Word"	NA	NA	"Good"	"Switch"
22	61	12	1	153	8221	"006"	"incongruent"	"Name"	"Male"	"Black"	NA	"Switch"
23	63	11	1	180	8507	"006"	"incongruent"	"Name"	"Male"	"White"	NA	"Stay"
24	70	11	1	238	8820	"006"	"incongruent"	"Word"	NA	NA	"Bad"	"Switch"
25	60	12	1	169	9190	"006"	"incongruent"	"Name"	"Female"	"Black"	NA	"Switch"
26	62	11	1	173	9490	"006"	"incongruent"	"Name"	"Female"	"White"	NA	"Stay"
27	80	12	1	180	9793	"006"	"incongruent"	"Word"	NA	NA	"Good"	"Switch"
28	62	11	1	236	10106	"006"	"incongruent"	"Name"	"Female"	"White"	NA	"Switch"
29	62	11	1	148	10473	"006"	"incongruent"	"Name"	"Female"	"White"	NA	"Stay"
30	63	11	1	126	10753	"006"	"incongruent"	"Name"	"Male"	"White"	NA	"Stay"
31	70	2	0	224	11013	"006"	"incongruent"	"Word"	NA	NA	"Bad"	"Switch"
32	61	12	1	513	11496	"006"	"incongruent"	"Name"	"Male"	"Black"	NA	"Switch"
33	60	12	1	126	12142	"006"	"incongruent"	"Name"	"Female"	"Black"	NA	"Stay"
34	60	12	1	129	12399	"006"	"incongruent"	"Name"	"Female"	"Black"	NA	"Stay"
35	80	12	1	307	12662	"006"	"incongruent"	"Word"	NA	NA	"Good"	"Switch"
36	61	12	1	143	13102	"006"	"incongruent"	"Name"	"Male"	"Black"	NA	"Switch"
37	70	11	1	163	13378	"006"	"incongruent"	"Word"	NA	NA	"Bad"	"Switch"
38	63	11	1	213	13671	"006"	"incongruent"	"Name"	"Male"	"White"	NA	"Switch"
39	63	11	1	276	14015	"006"	"incongruent"	"Name"	"Male"	"White"	NA	"Stay"
40	70	11	1	189	14424	"006"	"incongruent"	"Word"	NA	NA	"Bad"	"Switch"
41	62	11	1	139	14744	"006"	"incongruent"	"Name"	"Female"	"White"	NA	"Switch"
42	80	1	0	139	15014	"006"	"incongruent"	"Word"	NA	NA	"Good"	"Switch"
43	61	12	1	462	15411	"006"	"incongruent"	"Name"	"Male"	"Black"	NA	"Switch"
44	60	12	1	108	16007	"006"	"incongruent"	"Name"	"Female"	"Black"	NA	"Stay"
45	61	12	1	171	16247	"006"	"incongruent"	"Name"	"Male"	"Black"	NA	"Stay"
46	61	12	1	123	16550	"006"	"incongruent"	"Name"	"Male"	"Black"	NA	"Stay"
47	70	11	1	245	16807	"006"	"incongruent"	"Word"	NA	NA	"Bad"	"Switch"
48	63	11	1	258	17183	"006"	"incongruent"	"Name"	"Male"	"White"	NA	"Switch"
49	62	11	1	114	17573	"006"	"incongruent"	"Name"	"Female"	"White"	NA	"Stay"
50	80	12	1	190	17819	"006"	"incongruent"	"Word"	NA	NA	"Good"	"Switch"
51	61	12	1	144	18139	"006"	"incongruent"	"Name"	"Male"	"Black"	NA	"Switch"
52	60	12	1	138	18416	"006"	"incongruent"	"Name"	"Female"	"Black"	NA	"Stay"
53	60	12	1	131	18686	"006"	"incongruent"	"Name"	"Female"	"Black"	NA	"Stay"
54	61	12	1	104	18949	"006"	"incongruent"	"Name"	"Male"	"Black"	NA	"Stay"
55	62	11	1	145	19185	"006"	"incongruent"	"Name"	"Female"	"White"	NA	"Stay"
56	63	11	1	196	19462	"006"	"incongruent"	"Name"	"Male"	"White"	NA	"Stay"
57	80	12	1	173	19788	"006"	"incongruent"	"Word"	NA	NA	"Good"	"Switch"
58	61	12	1	140	20092	"006"	"incongruent"	"Name"	"Male"	"Black"	NA	"Switch"
59	60	12	1	132	20365	"006"	"incongruent"	"Name"	"Female"	"Black"	NA	"Stay"
60	70	11	1	197	20628	"006"	"incongruent"	"Word"	NA	NA	"Bad"	"Switch"
61	63	11	1	129	20958	"006"	"incongruent"	"Name"	"Male"	"White"	NA	"Switch"
62	62	11	1	111	21221	"006"	"incongruent"	"Name"	"Female"	"White"	NA	"Stay"
63	61	12	1	142	21464	"006"	"incongruent"	"Name"	"Male"	"Black"	NA	"Stay"
64	60	12	1	135	21737	"006"	"incongruent"	"Name"	"Female"	"Black"	NA	"Stay"
65	80	12	1	210	22004	"006"	"incongruent"	"Word"	NA	NA	"Good"	"Switch"
66	62	2	0	169	22347	"006"	"incongruent"	"Name"	"Female"	"White"	NA	"Switch"
67	62	2	0	256	22774	"006"	"incongruent"	"Name"	"Female"	"White"	NA	"Stay"
68	70	11	1	257	23287	"006"	"incongruent"	"Word"	NA	NA	"Bad"	"Switch"
69	63	11	1	100	23677	"006"	"incongruent"	"Name"	"Male"	"White"	NA	"Switch"
70	63	11	1	233	23910	"006"	"incongruent"	"Name"	"Male"	"White"	NA	"Stay"
71	63	1	0	400	24276	"006"	"incongruent"	"Name"	"Male"	"White"	NA	"Stay"
72	61	12	1	400	24936	"006"	"incongruent"	"Name"	"Male"	"Black"	NA	"Stay"
73	80	12	1	552	25469	"006"	"incongruent"	"Word"	NA	NA	"Good"	"Switch"
74	60	12	1	141	26152	"006"	"incongruent"	"Name"	"Female"	"Black"	NA	"Switch"
75	60	12	1	133	26425	"006"	"incongruent"	"Name"	"Female"	"Black"	NA	"Stay"
76	63	11	1	162	26688	"006"	"incongruent"	"Name"	"Male"	"White"	NA	"Stay"
77	70	11	1	177	26982	"006"	"incongruent"	"Word"	NA	NA	"Bad"	"Switch"
78	60	12	1	196	27291	"006"	"incongruent"	"Name"	"Female"	"Black"	NA	"Switch"
79	63	11	1	174	27618	"006"	"incongruent"	"Name"	"Male"	"White"	NA	"Stay"
80	80	12	1	163	27924	"006"	"incongruent"	"Word"	NA	NA	"Good"	"Switch"
81	70	11	1	167	28218	"006"	"incongruent"	"Word"	NA	NA	"Bad"	"Stay"
82	61	12	1	162	28518	"006"	"incongruent"	"Name"	"Male"	"Black"	NA	"Switch"
83	60	12	1	146	28811	"006"	"incongruent"	"Name"	"Female"	"Black"	NA	"Stay"
84	63	11	1	174	29091	"006"	"incongruent"	"Name"	"Male"	"White"	NA	"Stay"
85	70	11	1	197	29397	"006"	"incongruent"	"Word"	NA	NA	"Bad"	"Switch"
86	62	11	1	183	29727	"006"	"incongruent"	"Name"	"Female"	"White"	NA	"Switch"
87	60	12	1	196	30043	"006"	"incongruent"	"Name"	"Female"	"Black"	NA	"Stay"
88	62	11	1	163	30370	"006"	"incongruent"	"Name"	"Female"	"White"	NA	"Stay"
89	61	12	1	166	30666	"006"	"incongruent"	"Name"	"Male"	"Black"	NA	"Stay"
90	63	11	1	138	30963	"006"	"incongruent"	"Name"	"Male"	"White"	NA	"Stay"
91	70	11	1	223	31233	"006"	"incongruent"	"Word"	NA	NA	"Bad"	"Switch"
92	70	11	1	130	31589	"006"	"incongruent"	"Word"	NA	NA	"Bad"	"Stay"
93	63	12	1	156	31849	"006"	"incongruent"	"Name"	"Male"	"White"	NA	"Switch"
94	60	12	1	126	32136	"006"	"incongruent"	"Name"	"Female"	"Black"	NA	"Stay"
95	62	11	1	172	32396	"006"	"incongruent"	"Name"	"Female"	"White"	NA	"Stay"
96	80	12	1	130	32699	"006"	"incongruent"	"Word"	NA	NA	"Good"	"Switch"
97	62	11	1	173	32962	"006"	"incongruent"	"Name"	"Female"	"White"	NA	"Switch"
98	80	12	1	183	33269	"006"	"incongruent"	"Word"	NA	NA	"Good"	"Switch"
99	63	11	1	190	33585	"006"	"incongruent"	"Name"	"Male"	"White"	NA	"Switch"
100	63	11	1	114	33908	"006"	"incongruent"	"Name"	"Male"	"White"	NA	"Stay"
101	70	11	1	196	34155	"006"	"incongruent"	"Word"	NA	NA	"Bad"	"Switch"
102	60	12	1	152	34485	"006"	"incongruent"	"Name"	"Female"	"Black"	NA	"Switch"
103	80	12	1	145	34768	"006"	"incongruent"	"Word"	NA	NA	"Good"	"Switch"
104	61	12	1	129	35044	"006"	"incongruent"	"Name"	"Male"	"Black"	NA	"Switch"
105	61	12	1	137	35304	"006"	"incongruent"	"Name"	"Male"	"Black"	NA	"Stay"
106	80	12	1	153	35574	"006"	"incongruent"	"Word"	NA	NA	"Good"	"Switch"
107	63	11	1	136	35861	"006"	"incongruent"	"Name"	"Male"	"White"	NA	"Switch"
108	70	11	1	179	36131	"006"	"incongruent"	"Word"	NA	NA	"Bad"	"Switch"
109	70	11	1	161	36444	"006"	"incongruent"	"Word"	NA	NA	"Bad"	"Stay"
110	62	11	1	152	36737	"006"	"incongruent"	"Name"	"Female"	"White"	NA	"Switch"
111	62	11	1	129	37020	"006"	"incongruent"	"Name"	"Female"	"White"	NA	"Stay"
112	61	12	1	362	37280	"006"	"incongruent"	"Name"	"Male"	"Black"	NA	"Stay"
113	80	12	1	148	37773	"006"	"incongruent"	"Word"	NA	NA	"Good"	"Switch"
114	60	12	1	129	38053	"006"	"incongruent"	"Name"	"Female"	"Black"	NA	"Switch"
115	80	12	1	133	38313	"006"	"incongruent"	"Word"	NA	NA	"Good"	"Switch"
116	63	2	0	130	38579	"006"	"incongruent"	"Name"	"Male"	"White"	NA	"Switch"
117	61	12	1	185	38969	"006"	"incongruent"	"Name"	"Male"	"Black"	NA	"Stay"
118	80	12	1	472	39286	"006"	"incongruent"	"Word"	NA	NA	"Good"	"Switch"
119	62	11	1	531	39889	"006"	"incongruent"	"Name"	"Female"	"White"	NA	"Switch"
120	70	11	1	135	40552	"006"	"incongruent"	"Word"	NA	NA	"Bad"	"Switch"
121	60	12	1	129	40818	"006"	"incongruent"	"Name"	"Female"	"Black"	NA	"Switch"
1	70	12	1	162	261	"007"	"congruent"	"Word"	NA	NA	"Bad"	NA
2	80	11	1	117	555	"007"	"congruent"	"Word"	NA	NA	"Good"	"Stay"
3	60	12	1	130	804	"007"	"congruent"	"Name"	"Female"	"Black"	NA	"Switch"
4	60	12	1	121	1064	"007"	"congruent"	"Name"	"Female"	"Black"	NA	"Stay"
5	70	12	1	132	1317	"007"	"congruent"	"Word"	NA	NA	"Bad"	"Switch"
6	61	12	1	124	1581	"007"	"congruent"	"Name"	"Male"	"Black"	NA	"Switch"
7	62	11	1	137	1837	"007"	"congruent"	"Name"	"Female"	"White"	NA	"Stay"
8	80	11	1	131	2107	"007"	"congruent"	"Word"	NA	NA	"Good"	"Switch"
9	63	11	1	117	2370	"007"	"congruent"	"Name"	"Male"	"White"	NA	"Switch"
10	63	11	1	114	2617	"007"	"congruent"	"Name"	"Male"	"White"	NA	"Stay"
11	63	11	1	158	2863	"007"	"congruent"	"Name"	"Male"	"White"	NA	"Stay"
12	80	11	1	117	3153	"007"	"congruent"	"Word"	NA	NA	"Good"	"Switch"
13	60	12	1	168	3403	"007"	"congruent"	"Name"	"Female"	"Black"	NA	"Switch"
14	61	12	1	117	3703	"007"	"congruent"	"Name"	"Male"	"Black"	NA	"Stay"
15	62	11	1	119	3953	"007"	"congruent"	"Name"	"Female"	"White"	NA	"Stay"
16	70	12	1	112	4203	"007"	"congruent"	"Word"	NA	NA	"Bad"	"Switch"
17	70	12	1	139	4446	"007"	"congruent"	"Word"	NA	NA	"Bad"	"Stay"
18	62	11	1	110	4716	"007"	"congruent"	"Name"	"Female"	"White"	NA	"Switch"
19	80	11	1	133	4959	"007"	"congruent"	"Word"	NA	NA	"Good"	"Switch"
20	63	11	1	100	5222	"007"	"congruent"	"Name"	"Male"	"White"	NA	"Switch"
21	80	2	0	137	5456	"007"	"congruent"	"Word"	NA	NA	"Good"	"Switch"
22	61	12	1	149	5852	"007"	"congruent"	"Name"	"Male"	"Black"	NA	"Switch"
23	63	11	1	126	6132	"007"	"congruent"	"Name"	"Male"	"White"	NA	"Stay"
24	70	12	1	191	6388	"007"	"congruent"	"Word"	NA	NA	"Bad"	"Switch"
25	60	12	1	131	6712	"007"	"congruent"	"Name"	"Female"	"Black"	NA	"Switch"
26	62	11	1	131	6975	"007"	"congruent"	"Name"	"Female"	"White"	NA	"Stay"
27	80	11	1	100	7238	"007"	"congruent"	"Word"	NA	NA	"Good"	"Switch"
28	62	11	1	101	7468	"007"	"congruent"	"Name"	"Female"	"White"	NA	"Switch"
29	62	11	1	113	7701	"007"	"congruent"	"Name"	"Female"	"White"	NA	"Stay"
30	63	11	1	102	7948	"007"	"congruent"	"Name"	"Male"	"White"	NA	"Stay"
31	70	12	1	98	8181	"007"	"congruent"	"Word"	NA	NA	"Bad"	"Switch"
32	61	12	1	104	8411	"007"	"congruent"	"Name"	"Male"	"Black"	NA	"Switch"
33	60	1	0	100	8647	"007"	"congruent"	"Name"	"Female"	"Black"	NA	"Stay"
34	60	12	1	155	9007	"007"	"congruent"	"Name"	"Female"	"Black"	NA	"Stay"
35	80	11	1	121	9294	"007"	"congruent"	"Word"	NA	NA	"Good"	"Switch"
36	61	12	1	153	9547	"007"	"congruent"	"Name"	"Male"	"Black"	NA	"Switch"
37	70	12	1	125	9833	"007"	"congruent"	"Word"	NA	NA	"Bad"	"Switch"
38	63	11	1	140	10090	"007"	"congruent"	"Name"	"Male"	"White"	NA	"Switch"
39	63	11	1	105	10363	"007"	"congruent"	"Name"	"Male"	"White"	NA	"Stay"
40	70	12	1	105	10600	"007"	"congruent"	"Word"	NA	NA	"Bad"	"Switch"
41	62	11	1	115	10836	"007"	"congruent"	"Name"	"Female"	"White"	NA	"Switch"
42	80	11	1	133	11083	"007"	"congruent"	"Word"	NA	NA	"Good"	"Switch"
43	61	12	1	126	11346	"007"	"congruent"	"Name"	"Male"	"Black"	NA	"Switch"
44	60	12	1	122	11603	"007"	"congruent"	"Name"	"Female"	"Black"	NA	"Stay"
45	61	12	1	139	11856	"007"	"congruent"	"Name"	"Male"	"Black"	NA	"Stay"
46	61	12	1	116	12126	"007"	"congruent"	"Name"	"Male"	"Black"	NA	"Stay"
47	70	12	1	105	12372	"007"	"congruent"	"Word"	NA	NA	"Bad"	"Switch"
48	63	11	1	122	12609	"007"	"congruent"	"Name"	"Male"	"White"	NA	"Switch"
49	62	11	1	147	12862	"007"	"congruent"	"Name"	"Female"	"White"	NA	"Stay"
50	80	11	1	86	13142	"007"	"congruent"	"Word"	NA	NA	"Good"	"Switch"
51	61	12	1	148	13358	"007"	"congruent"	"Name"	"Male"	"Black"	NA	"Switch"
52	60	12	1	139	13638	"007"	"congruent"	"Name"	"Female"	"Black"	NA	"Stay"
53	60	12	1	107	13908	"007"	"congruent"	"Name"	"Female"	"Black"	NA	"Stay"
54	61	12	1	118	14148	"007"	"congruent"	"Name"	"Male"	"Black"	NA	"Stay"
55	62	11	1	135	14398	"007"	"congruent"	"Name"	"Female"	"White"	NA	"Stay"
56	63	11	1	98	14664	"007"	"congruent"	"Name"	"Male"	"White"	NA	"Stay"
57	80	11	1	98	14894	"007"	"congruent"	"Word"	NA	NA	"Good"	"Switch"
58	61	12	1	155	15124	"007"	"congruent"	"Name"	"Male"	"Black"	NA	"Switch"
59	60	12	1	118	15411	"007"	"congruent"	"Name"	"Female"	"Black"	NA	"Stay"
60	70	12	1	131	15661	"007"	"congruent"	"Word"	NA	NA	"Bad"	"Switch"
61	63	11	1	114	15924	"007"	"congruent"	"Name"	"Male"	"White"	NA	"Switch"
62	62	11	1	115	16170	"007"	"congruent"	"Name"	"Female"	"White"	NA	"Stay"
63	61	12	1	147	16417	"007"	"congruent"	"Name"	"Male"	"Black"	NA	"Stay"
64	60	12	1	122	16697	"007"	"congruent"	"Name"	"Female"	"Black"	NA	"Stay"
65	80	11	1	138	16953	"007"	"congruent"	"Word"	NA	NA	"Good"	"Switch"
66	62	11	1	98	17223	"007"	"congruent"	"Name"	"Female"	"White"	NA	"Switch"
67	62	11	1	122	17453	"007"	"congruent"	"Name"	"Female"	"White"	NA	"Stay"
68	70	12	1	141	17706	"007"	"congruent"	"Word"	NA	NA	"Bad"	"Switch"
69	63	11	1	132	17979	"007"	"congruent"	"Name"	"Male"	"White"	NA	"Switch"
70	63	11	1	145	18243	"007"	"congruent"	"Name"	"Male"	"White"	NA	"Stay"
71	63	12	1	110	18519	"007"	"congruent"	"Name"	"Male"	"White"	NA	"Stay"
72	61	12	1	120	18762	"007"	"congruent"	"Name"	"Male"	"Black"	NA	"Stay"
73	80	11	1	131	19012	"007"	"congruent"	"Word"	NA	NA	"Good"	"Switch"
74	60	12	1	140	19276	"007"	"congruent"	"Name"	"Female"	"Black"	NA	"Switch"
75	60	12	1	116	19549	"007"	"congruent"	"Name"	"Female"	"Black"	NA	"Stay"
76	63	11	1	110	19795	"007"	"congruent"	"Name"	"Male"	"White"	NA	"Stay"
77	70	12	1	107	20038	"007"	"congruent"	"Word"	NA	NA	"Bad"	"Switch"
78	60	12	1	134	20275	"007"	"congruent"	"Name"	"Female"	"Black"	NA	"Switch"
79	63	11	1	135	20542	"007"	"congruent"	"Name"	"Male"	"White"	NA	"Stay"
80	80	11	1	125	20808	"007"	"congruent"	"Word"	NA	NA	"Good"	"Switch"
81	70	12	1	122	21065	"007"	"congruent"	"Word"	NA	NA	"Bad"	"Stay"
82	61	12	1	126	21318	"007"	"congruent"	"Name"	"Male"	"Black"	NA	"Switch"
83	60	12	1	122	21578	"007"	"congruent"	"Name"	"Female"	"Black"	NA	"Stay"
84	63	11	1	159	21831	"007"	"congruent"	"Name"	"Male"	"White"	NA	"Stay"
85	70	12	1	106	22121	"007"	"congruent"	"Word"	NA	NA	"Bad"	"Switch"
86	62	11	1	103	22361	"007"	"congruent"	"Name"	"Female"	"White"	NA	"Switch"
87	60	12	1	125	22594	"007"	"congruent"	"Name"	"Female"	"Black"	NA	"Stay"
88	62	11	1	118	22850	"007"	"congruent"	"Name"	"Female"	"White"	NA	"Stay"
89	61	12	1	112	23100	"007"	"congruent"	"Name"	"Male"	"Black"	NA	"Stay"
90	63	11	1	117	23344	"007"	"congruent"	"Name"	"Male"	"White"	NA	"Stay"
91	70	12	1	132	23593	"007"	"congruent"	"Word"	NA	NA	"Bad"	"Switch"
92	70	12	1	142	23857	"007"	"congruent"	"Word"	NA	NA	"Bad"	"Stay"
93	63	12	1	130	24130	"007"	"congruent"	"Name"	"Male"	"White"	NA	"Switch"
94	60	12	1	106	24393	"007"	"congruent"	"Name"	"Female"	"Black"	NA	"Stay"
95	62	11	1	109	24630	"007"	"congruent"	"Name"	"Female"	"White"	NA	"Stay"
96	80	11	1	86	24873	"007"	"congruent"	"Word"	NA	NA	"Good"	"Switch"
97	62	2	0	89	25089	"007"	"congruent"	"Name"	"Female"	"White"	NA	"Switch"
98	80	11	1	147	25436	"007"	"congruent"	"Word"	NA	NA	"Good"	"Switch"
99	63	11	1	141	25716	"007"	"congruent"	"Name"	"Male"	"White"	NA	"Switch"
100	63	11	1	107	25989	"007"	"congruent"	"Name"	"Male"	"White"	NA	"Stay"
101	70	12	1	129	26229	"007"	"congruent"	"Word"	NA	NA	"Bad"	"Switch"
102	60	12	1	115	26489	"007"	"congruent"	"Name"	"Female"	"Black"	NA	"Switch"
103	80	11	1	127	26735	"007"	"congruent"	"Word"	NA	NA	"Good"	"Switch"
104	61	12	1	147	26995	"007"	"congruent"	"Name"	"Male"	"Black"	NA	"Switch"
105	61	12	1	128	27275	"007"	"congruent"	"Name"	"Male"	"Black"	NA	"Stay"
106	80	11	1	152	27535	"007"	"congruent"	"Word"	NA	NA	"Good"	"Switch"
107	63	11	1	127	27818	"007"	"congruent"	"Name"	"Male"	"White"	NA	"Switch"
108	70	12	1	134	28078	"007"	"congruent"	"Word"	NA	NA	"Bad"	"Switch"
109	70	12	1	128	28345	"007"	"congruent"	"Word"	NA	NA	"Bad"	"Stay"
110	62	11	1	148	28604	"007"	"congruent"	"Name"	"Female"	"White"	NA	"Switch"
111	62	11	1	127	28884	"007"	"congruent"	"Name"	"Female"	"White"	NA	"Stay"
112	61	12	1	131	29144	"007"	"congruent"	"Name"	"Male"	"Black"	NA	"Stay"
113	80	11	1	142	29407	"007"	"congruent"	"Word"	NA	NA	"Good"	"Switch"
114	60	12	1	103	29681	"007"	"congruent"	"Name"	"Female"	"Black"	NA	"Switch"
115	80	11	1	160	29917	"007"	"congruent"	"Word"	NA	NA	"Good"	"Switch"
116	63	11	1	139	30210	"007"	"congruent"	"Name"	"Male"	"White"	NA	"Switch"
117	61	12	1	136	30480	"007"	"congruent"	"Name"	"Male"	"Black"	NA	"Stay"
118	80	11	1	118	30747	"007"	"congruent"	"Word"	NA	NA	"Good"	"Switch"
119	62	11	1	141	30997	"007"	"congruent"	"Name"	"Female"	"White"	NA	"Switch"
120	70	12	1	140	31270	"007"	"congruent"	"Word"	NA	NA	"Bad"	"Switch"
121	60	12	1	128	31543	"007"	"congruent"	"Name"	"Female"	"Black"	NA	"Switch"
1	70	11	1	191	378	"007"	"incongruent"	"Word"	NA	NA	"Bad"	NA
2	80	1	0	122	701	"007"	"incongruent"	"Word"	NA	NA	"Good"	"Stay"
3	60	12	1	323	1081	"007"	"incongruent"	"Name"	"Female"	"Black"	NA	"Switch"
4	60	12	1	157	1537	"007"	"incongruent"	"Name"	"Female"	"Black"	NA	"Stay"
5	70	11	1	188	1827	"007"	"incongruent"	"Word"	NA	NA	"Bad"	"Switch"
6	61	12	1	207	2147	"007"	"incongruent"	"Name"	"Male"	"Black"	NA	"Switch"
7	62	11	1	197	2487	"007"	"incongruent"	"Name"	"Female"	"White"	NA	"Stay"
8	80	12	1	198	2817	"007"	"incongruent"	"Word"	NA	NA	"Good"	"Switch"
9	63	11	1	256	3146	"007"	"incongruent"	"Name"	"Male"	"White"	NA	"Switch"
10	63	11	1	154	3533	"007"	"incongruent"	"Name"	"Male"	"White"	NA	"Stay"
11	63	11	1	145	3819	"007"	"incongruent"	"Name"	"Male"	"White"	NA	"Stay"
12	80	12	1	212	4096	"007"	"incongruent"	"Word"	NA	NA	"Good"	"Switch"
13	60	12	1	211	4439	"007"	"incongruent"	"Name"	"Female"	"Black"	NA	"Switch"
14	61	12	1	149	4782	"007"	"incongruent"	"Name"	"Male"	"Black"	NA	"Stay"
15	62	11	1	215	5062	"007"	"incongruent"	"Name"	"Female"	"White"	NA	"Stay"
16	70	11	1	146	5409	"007"	"incongruent"	"Word"	NA	NA	"Bad"	"Switch"
17	70	11	1	166	5689	"007"	"incongruent"	"Word"	NA	NA	"Bad"	"Stay"
18	62	11	1	190	5985	"007"	"incongruent"	"Name"	"Female"	"White"	NA	"Switch"
19	80	1	0	136	6308	"007"	"incongruent"	"Word"	NA	NA	"Good"	"Switch"
20	63	11	1	175	6701	"007"	"incongruent"	"Name"	"Male"	"White"	NA	"Switch"
21	80	12	1	251	7008	"007"	"incongruent"	"Word"	NA	NA	"Good"	"Switch"
22	61	12	1	173	7391	"007"	"incongruent"	"Name"	"Male"	"Black"	NA	"Switch"
23	63	11	1	161	7698	"007"	"incongruent"	"Name"	"Male"	"White"	NA	"Stay"
24	70	2	0	246	7991	"007"	"incongruent"	"Word"	NA	NA	"Bad"	"Switch"
25	60	12	1	221	8497	"007"	"incongruent"	"Name"	"Female"	"Black"	NA	"Switch"
26	62	11	1	145	8850	"007"	"incongruent"	"Name"	"Female"	"White"	NA	"Stay"
27	80	12	1	230	9127	"007"	"incongruent"	"Word"	NA	NA	"Good"	"Switch"
28	62	11	1	203	9490	"007"	"incongruent"	"Name"	"Female"	"White"	NA	"Switch"
29	62	11	1	159	9823	"007"	"incongruent"	"Name"	"Female"	"White"	NA	"Stay"
30	63	11	1	157	10113	"007"	"incongruent"	"Name"	"Male"	"White"	NA	"Stay"
31	70	11	1	132	10403	"007"	"incongruent"	"Word"	NA	NA	"Bad"	"Switch"
32	61	12	1	159	10666	"007"	"incongruent"	"Name"	"Male"	"Black"	NA	"Switch"
33	60	12	1	156	10956	"007"	"incongruent"	"Name"	"Female"	"Black"	NA	"Stay"
34	60	12	1	168	11242	"007"	"incongruent"	"Name"	"Female"	"Black"	NA	"Stay"
35	80	12	1	144	11542	"007"	"incongruent"	"Word"	NA	NA	"Good"	"Switch"
36	61	12	1	155	11819	"007"	"incongruent"	"Name"	"Male"	"Black"	NA	"Switch"
37	70	11	1	160	12105	"007"	"incongruent"	"Word"	NA	NA	"Bad"	"Switch"
38	63	11	1	121	12395	"007"	"incongruent"	"Name"	"Male"	"White"	NA	"Switch"
39	63	11	1	127	12648	"007"	"incongruent"	"Name"	"Male"	"White"	NA	"Stay"
40	70	11	1	152	12905	"007"	"incongruent"	"Word"	NA	NA	"Bad"	"Switch"
41	62	11	1	166	13188	"007"	"incongruent"	"Name"	"Female"	"White"	NA	"Switch"
42	80	12	1	185	13485	"007"	"incongruent"	"Word"	NA	NA	"Good"	"Switch"
43	61	12	1	119	13801	"007"	"incongruent"	"Name"	"Male"	"Black"	NA	"Switch"
44	60	12	1	122	14051	"007"	"incongruent"	"Name"	"Female"	"Black"	NA	"Stay"
45	61	12	1	121	14304	"007"	"incongruent"	"Name"	"Male"	"Black"	NA	"Stay"
46	61	12	1	131	14558	"007"	"incongruent"	"Name"	"Male"	"Black"	NA	"Stay"
47	70	11	1	171	14821	"007"	"incongruent"	"Word"	NA	NA	"Bad"	"Switch"
48	63	11	1	178	15124	"007"	"incongruent"	"Name"	"Male"	"White"	NA	"Switch"
49	62	11	1	135	15434	"007"	"incongruent"	"Name"	"Female"	"White"	NA	"Stay"
50	80	12	1	180	15700	"007"	"incongruent"	"Word"	NA	NA	"Good"	"Switch"
51	61	12	1	149	16010	"007"	"incongruent"	"Name"	"Male"	"Black"	NA	"Switch"
52	60	12	1	159	16290	"007"	"incongruent"	"Name"	"Female"	"Black"	NA	"Stay"
53	60	12	1	146	16580	"007"	"incongruent"	"Name"	"Female"	"Black"	NA	"Stay"
54	61	12	1	127	16856	"007"	"incongruent"	"Name"	"Male"	"Black"	NA	"Stay"
55	62	2	0	125	17113	"007"	"incongruent"	"Name"	"Female"	"White"	NA	"Stay"
56	63	11	1	146	17496	"007"	"incongruent"	"Name"	"Male"	"White"	NA	"Stay"
57	80	12	1	189	17776	"007"	"incongruent"	"Word"	NA	NA	"Good"	"Switch"
58	61	12	1	179	18096	"007"	"incongruent"	"Name"	"Male"	"Black"	NA	"Switch"
59	60	12	1	175	18406	"007"	"incongruent"	"Name"	"Female"	"Black"	NA	"Stay"
60	70	11	1	176	18712	"007"	"incongruent"	"Word"	NA	NA	"Bad"	"Switch"
61	63	11	1	205	19019	"007"	"incongruent"	"Name"	"Male"	"White"	NA	"Switch"
62	62	11	1	234	19355	"007"	"incongruent"	"Name"	"Female"	"White"	NA	"Stay"
63	61	12	1	169	19722	"007"	"incongruent"	"Name"	"Male"	"Black"	NA	"Stay"
64	60	12	1	191	20022	"007"	"incongruent"	"Name"	"Female"	"Black"	NA	"Stay"
65	80	12	1	137	20345	"007"	"incongruent"	"Word"	NA	NA	"Good"	"Switch"
66	62	11	1	150	20615	"007"	"incongruent"	"Name"	"Female"	"White"	NA	"Switch"
67	62	11	1	108	20898	"007"	"incongruent"	"Name"	"Female"	"White"	NA	"Stay"
68	70	11	1	144	21138	"007"	"incongruent"	"Word"	NA	NA	"Bad"	"Switch"
69	63	11	1	175	21414	"007"	"incongruent"	"Name"	"Male"	"White"	NA	"Switch"
70	63	11	1	117	21721	"007"	"incongruent"	"Name"	"Male"	"White"	NA	"Stay"
71	63	12	1	186	21971	"007"	"incongruent"	"Name"	"Male"	"White"	NA	"Stay"
72	61	12	1	161	22291	"007"	"incongruent"	"Name"	"Male"	"Black"	NA	"Stay"
73	80	1	0	151	22584	"007"	"incongruent"	"Word"	NA	NA	"Good"	"Switch"
74	60	12	1	307	22994	"007"	"incongruent"	"Name"	"Female"	"Black"	NA	"Switch"
75	60	12	1	159	23433	"007"	"incongruent"	"Name"	"Female"	"Black"	NA	"Stay"
76	63	11	1	155	23723	"007"	"incongruent"	"Name"	"Male"	"White"	NA	"Stay"
77	70	11	1	166	24010	"007"	"incongruent"	"Word"	NA	NA	"Bad"	"Switch"
78	60	12	1	167	24310	"007"	"incongruent"	"Name"	"Female"	"Black"	NA	"Switch"
79	63	11	1	297	24609	"007"	"incongruent"	"Name"	"Male"	"White"	NA	"Stay"
80	80	12	1	180	25039	"007"	"incongruent"	"Word"	NA	NA	"Good"	"Switch"
81	70	11	1	161	25349	"007"	"incongruent"	"Word"	NA	NA	"Bad"	"Stay"
82	61	12	1	151	25642	"007"	"incongruent"	"Name"	"Male"	"Black"	NA	"Switch"
83	60	12	1	167	25925	"007"	"incongruent"	"Name"	"Female"	"Black"	NA	"Stay"
84	63	11	1	155	26225	"007"	"incongruent"	"Name"	"Male"	"White"	NA	"Stay"
85	70	11	1	256	26512	"007"	"incongruent"	"Word"	NA	NA	"Bad"	"Switch"
86	62	11	1	170	26898	"007"	"incongruent"	"Name"	"Female"	"White"	NA	"Switch"
87	60	12	1	215	27198	"007"	"incongruent"	"Name"	"Female"	"Black"	NA	"Stay"
88	62	11	1	171	27545	"007"	"incongruent"	"Name"	"Female"	"White"	NA	"Stay"
89	61	12	1	158	27848	"007"	"incongruent"	"Name"	"Male"	"Black"	NA	"Stay"
90	63	11	1	170	28138	"007"	"incongruent"	"Name"	"Male"	"White"	NA	"Stay"
91	70	11	1	156	28441	"007"	"incongruent"	"Word"	NA	NA	"Bad"	"Switch"
92	70	11	1	147	28727	"007"	"incongruent"	"Word"	NA	NA	"Bad"	"Stay"
93	63	12	1	163	29007	"007"	"incongruent"	"Name"	"Male"	"White"	NA	"Switch"
94	60	12	1	144	29300	"007"	"incongruent"	"Name"	"Female"	"Black"	NA	"Stay"
95	62	11	1	161	29577	"007"	"incongruent"	"Name"	"Female"	"White"	NA	"Stay"
96	80	12	1	148	29870	"007"	"incongruent"	"Word"	NA	NA	"Good"	"Switch"
97	62	11	1	170	30150	"007"	"incongruent"	"Name"	"Female"	"White"	NA	"Switch"
98	80	12	1	174	30453	"007"	"incongruent"	"Word"	NA	NA	"Good"	"Switch"
99	63	11	1	144	30760	"007"	"incongruent"	"Name"	"Male"	"White"	NA	"Switch"
100	63	11	1	131	31036	"007"	"incongruent"	"Name"	"Male"	"White"	NA	"Stay"
101	70	11	1	302	31300	"007"	"incongruent"	"Word"	NA	NA	"Bad"	"Switch"
102	60	12	1	164	31736	"007"	"incongruent"	"Name"	"Female"	"Black"	NA	"Switch"
103	80	12	1	189	32032	"007"	"incongruent"	"Word"	NA	NA	"Good"	"Switch"
104	61	12	1	155	32352	"007"	"incongruent"	"Name"	"Male"	"Black"	NA	"Switch"
105	61	12	1	147	32639	"007"	"incongruent"	"Name"	"Male"	"Black"	NA	"Stay"
106	80	12	1	151	32919	"007"	"incongruent"	"Word"	NA	NA	"Good"	"Switch"
107	63	11	1	160	33202	"007"	"incongruent"	"Name"	"Male"	"White"	NA	"Switch"
108	70	11	1	120	33495	"007"	"incongruent"	"Word"	NA	NA	"Bad"	"Switch"
109	70	11	1	137	33745	"007"	"incongruent"	"Word"	NA	NA	"Bad"	"Stay"
110	62	11	1	157	34015	"007"	"incongruent"	"Name"	"Female"	"White"	NA	"Switch"
111	62	11	1	130	34305	"007"	"incongruent"	"Name"	"Female"	"White"	NA	"Stay"
112	61	12	1	150	34568	"007"	"incongruent"	"Name"	"Male"	"Black"	NA	"Stay"
113	80	12	1	212	34851	"007"	"incongruent"	"Word"	NA	NA	"Good"	"Switch"
114	60	12	1	155	35194	"007"	"incongruent"	"Name"	"Female"	"Black"	NA	"Switch"
115	80	12	1	184	35481	"007"	"incongruent"	"Word"	NA	NA	"Good"	"Switch"
116	63	11	1	149	35797	"007"	"incongruent"	"Name"	"Male"	"White"	NA	"Switch"
117	61	12	1	149	36077	"007"	"incongruent"	"Name"	"Male"	"Black"	NA	"Stay"
118	80	12	1	169	36357	"007"	"incongruent"	"Word"	NA	NA	"Good"	"Switch"
119	62	11	1	139	36657	"007"	"incongruent"	"Name"	"Female"	"White"	NA	"Switch"
120	70	11	1	135	36927	"007"	"incongruent"	"Word"	NA	NA	"Bad"	"Switch"
121	60	12	1	138	37193	"007"	"incongruent"	"Name"	"Female"	"Black"	NA	"Switch"
1	70	1	0	188	493	"008"	"congruent"	"Word"	NA	NA	"Bad"	NA
2	80	11	1	200	940	"008"	"congruent"	"Word"	NA	NA	"Good"	"Stay"
3	60	12	1	143	1273	"008"	"congruent"	"Name"	"Female"	"Black"	NA	"Switch"
4	60	12	1	129	1549	"008"	"congruent"	"Name"	"Female"	"Black"	NA	"Stay"
5	70	1	0	139	1809	"008"	"congruent"	"Word"	NA	NA	"Bad"	"Switch"
6	61	12	1	173	2206	"008"	"congruent"	"Name"	"Male"	"Black"	NA	"Switch"
7	62	11	1	188	2509	"008"	"congruent"	"Name"	"Female"	"White"	NA	"Stay"
8	80	11	1	204	2829	"008"	"congruent"	"Word"	NA	NA	"Good"	"Switch"
9	63	11	1	177	3165	"008"	"congruent"	"Name"	"Male"	"White"	NA	"Switch"
10	63	11	1	148	3475	"008"	"congruent"	"Name"	"Male"	"White"	NA	"Stay"
11	63	11	1	153	3755	"008"	"congruent"	"Name"	"Male"	"White"	NA	"Stay"
12	80	11	1	165	4038	"008"	"congruent"	"Word"	NA	NA	"Good"	"Switch"
13	60	12	1	149	4335	"008"	"congruent"	"Name"	"Female"	"Black"	NA	"Switch"
14	61	12	1	135	4615	"008"	"congruent"	"Name"	"Male"	"Black"	NA	"Stay"
15	62	11	1	137	4881	"008"	"congruent"	"Name"	"Female"	"White"	NA	"Stay"
16	70	12	1	125	5151	"008"	"congruent"	"Word"	NA	NA	"Bad"	"Switch"
17	70	12	1	120	5407	"008"	"congruent"	"Word"	NA	NA	"Bad"	"Stay"
18	62	11	1	135	5657	"008"	"congruent"	"Name"	"Female"	"White"	NA	"Switch"
19	80	11	1	145	5924	"008"	"congruent"	"Word"	NA	NA	"Good"	"Switch"
20	63	11	1	143	6200	"008"	"congruent"	"Name"	"Male"	"White"	NA	"Switch"
21	80	11	1	132	6477	"008"	"congruent"	"Word"	NA	NA	"Good"	"Switch"
22	61	12	1	135	6740	"008"	"congruent"	"Name"	"Male"	"Black"	NA	"Switch"
23	63	11	1	228	7007	"008"	"congruent"	"Name"	"Male"	"White"	NA	"Stay"
24	70	12	1	153	7367	"008"	"congruent"	"Word"	NA	NA	"Bad"	"Switch"
25	60	12	1	152	7653	"008"	"congruent"	"Name"	"Female"	"Black"	NA	"Switch"
26	62	11	1	151	7936	"008"	"congruent"	"Name"	"Female"	"White"	NA	"Stay"
27	80	11	1	220	8219	"008"	"congruent"	"Word"	NA	NA	"Good"	"Switch"
28	62	11	1	126	8569	"008"	"congruent"	"Name"	"Female"	"White"	NA	"Switch"
29	62	11	1	122	8826	"008"	"congruent"	"Name"	"Female"	"White"	NA	"Stay"
30	63	11	1	154	9079	"008"	"congruent"	"Name"	"Male"	"White"	NA	"Stay"
31	70	12	1	125	9366	"008"	"congruent"	"Word"	NA	NA	"Bad"	"Switch"
32	61	12	1	154	9622	"008"	"congruent"	"Name"	"Male"	"Black"	NA	"Switch"
33	60	12	1	113	9909	"008"	"congruent"	"Name"	"Female"	"Black"	NA	"Stay"
34	60	12	1	116	10155	"008"	"congruent"	"Name"	"Female"	"Black"	NA	"Stay"
35	80	11	1	140	10402	"008"	"congruent"	"Word"	NA	NA	"Good"	"Switch"
36	61	12	1	125	10675	"008"	"congruent"	"Name"	"Male"	"Black"	NA	"Switch"
37	70	12	1	187	10931	"008"	"congruent"	"Word"	NA	NA	"Bad"	"Switch"
38	63	11	1	140	11251	"008"	"congruent"	"Name"	"Male"	"White"	NA	"Switch"
39	63	11	1	119	11525	"008"	"congruent"	"Name"	"Male"	"White"	NA	"Stay"
40	70	12	1	148	11778	"008"	"congruent"	"Word"	NA	NA	"Bad"	"Switch"
41	62	11	1	108	12058	"008"	"congruent"	"Name"	"Female"	"White"	NA	"Switch"
42	80	11	1	128	12297	"008"	"congruent"	"Word"	NA	NA	"Good"	"Switch"
43	61	12	1	125	12557	"008"	"congruent"	"Name"	"Male"	"Black"	NA	"Switch"
44	60	12	1	132	12814	"008"	"congruent"	"Name"	"Female"	"Black"	NA	"Stay"
45	61	12	1	118	13077	"008"	"congruent"	"Name"	"Male"	"Black"	NA	"Stay"
46	61	12	1	125	13327	"008"	"congruent"	"Name"	"Male"	"Black"	NA	"Stay"
47	70	12	1	132	13584	"008"	"congruent"	"Word"	NA	NA	"Bad"	"Switch"
48	63	11	1	147	13847	"008"	"congruent"	"Name"	"Male"	"White"	NA	"Switch"
49	62	11	1	155	14127	"008"	"congruent"	"Name"	"Female"	"White"	NA	"Stay"
50	80	2	0	125	14413	"008"	"congruent"	"Word"	NA	NA	"Good"	"Switch"
51	61	12	1	152	14796	"008"	"congruent"	"Name"	"Male"	"Black"	NA	"Switch"
52	60	12	1	158	15079	"008"	"congruent"	"Name"	"Female"	"Black"	NA	"Stay"
53	60	12	1	119	15369	"008"	"congruent"	"Name"	"Female"	"Black"	NA	"Stay"
54	61	12	1	131	15619	"008"	"congruent"	"Name"	"Male"	"Black"	NA	"Stay"
55	62	11	1	151	15882	"008"	"congruent"	"Name"	"Female"	"White"	NA	"Stay"
56	63	11	1	132	16166	"008"	"congruent"	"Name"	"Male"	"White"	NA	"Stay"
57	80	11	1	148	16429	"008"	"congruent"	"Word"	NA	NA	"Good"	"Switch"
58	61	12	1	143	16709	"008"	"congruent"	"Name"	"Male"	"Black"	NA	"Switch"
59	60	12	1	142	16985	"008"	"congruent"	"Name"	"Female"	"Black"	NA	"Stay"
60	70	12	1	143	17258	"008"	"congruent"	"Word"	NA	NA	"Bad"	"Switch"
61	63	11	1	141	17535	"008"	"congruent"	"Name"	"Male"	"White"	NA	"Switch"
62	62	11	1	129	17808	"008"	"congruent"	"Name"	"Female"	"White"	NA	"Stay"
63	61	12	1	140	18068	"008"	"congruent"	"Name"	"Male"	"Black"	NA	"Stay"
64	60	12	1	134	18341	"008"	"congruent"	"Name"	"Female"	"Black"	NA	"Stay"
65	80	11	1	126	18608	"008"	"congruent"	"Word"	NA	NA	"Good"	"Switch"
66	62	11	1	134	18868	"008"	"congruent"	"Name"	"Female"	"White"	NA	"Switch"
67	62	11	1	130	19134	"008"	"congruent"	"Name"	"Female"	"White"	NA	"Stay"
68	70	12	1	136	19397	"008"	"congruent"	"Word"	NA	NA	"Bad"	"Switch"
69	63	11	1	154	19664	"008"	"congruent"	"Name"	"Male"	"White"	NA	"Switch"
70	63	11	1	147	19950	"008"	"congruent"	"Name"	"Male"	"White"	NA	"Stay"
71	63	12	1	145	20230	"008"	"congruent"	"Name"	"Male"	"White"	NA	"Stay"
72	61	12	1	125	20507	"008"	"congruent"	"Name"	"Male"	"Black"	NA	"Stay"
73	80	11	1	134	20763	"008"	"congruent"	"Word"	NA	NA	"Good"	"Switch"
74	60	12	1	146	21030	"008"	"congruent"	"Name"	"Female"	"Black"	NA	"Switch"
75	60	12	1	119	21306	"008"	"congruent"	"Name"	"Female"	"Black"	NA	"Stay"
76	63	11	1	140	21556	"008"	"congruent"	"Name"	"Male"	"White"	NA	"Stay"
77	70	12	1	114	21830	"008"	"congruent"	"Word"	NA	NA	"Bad"	"Switch"
78	60	12	1	255	22076	"008"	"congruent"	"Name"	"Female"	"Black"	NA	"Switch"
79	63	11	1	162	22463	"008"	"congruent"	"Name"	"Male"	"White"	NA	"Stay"
80	80	11	1	136	22756	"008"	"congruent"	"Word"	NA	NA	"Good"	"Switch"
81	70	12	1	133	23022	"008"	"congruent"	"Word"	NA	NA	"Bad"	"Stay"
82	61	12	1	145	23286	"008"	"congruent"	"Name"	"Male"	"Black"	NA	"Switch"
83	60	12	1	131	23562	"008"	"congruent"	"Name"	"Female"	"Black"	NA	"Stay"
84	63	11	1	108	23825	"008"	"congruent"	"Name"	"Male"	"White"	NA	"Stay"
85	70	12	1	125	24065	"008"	"congruent"	"Word"	NA	NA	"Bad"	"Switch"
86	62	11	1	164	24322	"008"	"congruent"	"Name"	"Female"	"White"	NA	"Switch"
87	60	12	1	133	24618	"008"	"congruent"	"Name"	"Female"	"Black"	NA	"Stay"
88	62	11	1	219	24885	"008"	"congruent"	"Name"	"Female"	"White"	NA	"Stay"
89	61	12	1	137	25235	"008"	"congruent"	"Name"	"Male"	"Black"	NA	"Stay"
90	63	2	0	158	25504	"008"	"congruent"	"Name"	"Male"	"White"	NA	"Stay"
91	70	12	1	155	25921	"008"	"congruent"	"Word"	NA	NA	"Bad"	"Switch"
92	70	12	1	142	26207	"008"	"congruent"	"Word"	NA	NA	"Bad"	"Stay"
93	63	12	1	102	26481	"008"	"congruent"	"Name"	"Male"	"White"	NA	"Switch"
94	60	12	1	106	26714	"008"	"congruent"	"Name"	"Female"	"Black"	NA	"Stay"
95	62	11	1	154	26950	"008"	"congruent"	"Name"	"Female"	"White"	NA	"Stay"
96	80	11	1	167	27237	"008"	"congruent"	"Word"	NA	NA	"Good"	"Switch"
97	62	11	1	117	27537	"008"	"congruent"	"Name"	"Female"	"White"	NA	"Switch"
98	80	11	1	116	27787	"008"	"congruent"	"Word"	NA	NA	"Good"	"Switch"
99	63	11	1	132	28033	"008"	"congruent"	"Name"	"Male"	"White"	NA	"Switch"
100	63	11	1	99	28296	"008"	"congruent"	"Name"	"Male"	"White"	NA	"Stay"
101	70	12	1	157	28526	"008"	"congruent"	"Word"	NA	NA	"Bad"	"Switch"
102	60	12	1	175	28816	"008"	"congruent"	"Name"	"Female"	"Black"	NA	"Switch"
103	80	11	1	200	29123	"008"	"congruent"	"Word"	NA	NA	"Good"	"Switch"
104	61	12	1	103	29456	"008"	"congruent"	"Name"	"Male"	"Black"	NA	"Switch"
105	61	12	1	116	29692	"008"	"congruent"	"Name"	"Male"	"Black"	NA	"Stay"
106	80	11	1	156	29939	"008"	"congruent"	"Word"	NA	NA	"Good"	"Switch"
107	63	11	1	135	30229	"008"	"congruent"	"Name"	"Male"	"White"	NA	"Switch"
108	70	12	1	147	30495	"008"	"congruent"	"Word"	NA	NA	"Bad"	"Switch"
109	70	12	1	119	30775	"008"	"congruent"	"Word"	NA	NA	"Bad"	"Stay"
110	62	11	1	114	31025	"008"	"congruent"	"Name"	"Female"	"White"	NA	"Switch"
111	62	11	1	108	31272	"008"	"congruent"	"Name"	"Female"	"White"	NA	"Stay"
112	61	12	1	121	31512	"008"	"congruent"	"Name"	"Male"	"Black"	NA	"Stay"
113	80	11	1	132	31765	"008"	"congruent"	"Word"	NA	NA	"Good"	"Switch"
114	60	12	1	125	32028	"008"	"congruent"	"Name"	"Female"	"Black"	NA	"Switch"
115	80	11	1	110	32285	"008"	"congruent"	"Word"	NA	NA	"Good"	"Switch"
116	63	11	1	112	32528	"008"	"congruent"	"Name"	"Male"	"White"	NA	"Switch"
117	61	1	0	102	32771	"008"	"congruent"	"Name"	"Male"	"Black"	NA	"Stay"
118	80	11	1	168	33131	"008"	"congruent"	"Word"	NA	NA	"Good"	"Switch"
119	62	2	0	146	33431	"008"	"congruent"	"Name"	"Female"	"White"	NA	"Switch"
120	70	12	1	225	33837	"008"	"congruent"	"Word"	NA	NA	"Bad"	"Switch"
121	60	12	1	152	34194	"008"	"congruent"	"Name"	"Female"	"Black"	NA	"Switch"
1	70	11	1	334	259	"008"	"incongruent"	"Word"	NA	NA	"Bad"	NA
2	80	12	1	239	725	"008"	"incongruent"	"Word"	NA	NA	"Good"	"Stay"
3	60	12	1	235	1095	"008"	"incongruent"	"Name"	"Female"	"Black"	NA	"Switch"
4	60	12	1	162	1461	"008"	"incongruent"	"Name"	"Female"	"Black"	NA	"Stay"
5	70	11	1	244	1755	"008"	"incongruent"	"Word"	NA	NA	"Bad"	"Switch"
6	61	12	1	217	2131	"008"	"incongruent"	"Name"	"Male"	"Black"	NA	"Switch"
7	62	11	1	166	2481	"008"	"incongruent"	"Name"	"Female"	"White"	NA	"Stay"
8	80	1	0	145	2777	"008"	"incongruent"	"Word"	NA	NA	"Good"	"Switch"
9	63	11	1	299	3181	"008"	"incongruent"	"Name"	"Male"	"White"	NA	"Switch"
10	63	11	1	188	3610	"008"	"incongruent"	"Name"	"Male"	"White"	NA	"Stay"
11	63	11	1	141	3930	"008"	"incongruent"	"Name"	"Male"	"White"	NA	"Stay"
12	80	12	1	206	4203	"008"	"incongruent"	"Word"	NA	NA	"Good"	"Switch"
13	60	1	0	303	4540	"008"	"incongruent"	"Name"	"Female"	"Black"	NA	"Switch"
14	61	12	1	173	5100	"008"	"incongruent"	"Name"	"Male"	"Black"	NA	"Stay"
15	62	11	1	157	5406	"008"	"incongruent"	"Name"	"Female"	"White"	NA	"Stay"
16	70	11	1	240	5696	"008"	"incongruent"	"Word"	NA	NA	"Bad"	"Switch"
17	70	11	1	155	6069	"008"	"incongruent"	"Word"	NA	NA	"Bad"	"Stay"
18	62	11	1	245	6356	"008"	"incongruent"	"Name"	"Female"	"White"	NA	"Switch"
19	80	1	0	136	6732	"008"	"incongruent"	"Word"	NA	NA	"Good"	"Switch"
20	63	11	1	153	7129	"008"	"incongruent"	"Name"	"Male"	"White"	NA	"Switch"
21	80	12	1	233	7415	"008"	"incongruent"	"Word"	NA	NA	"Good"	"Switch"
22	61	12	1	249	7782	"008"	"incongruent"	"Name"	"Male"	"Black"	NA	"Switch"
23	63	11	1	184	8165	"008"	"incongruent"	"Name"	"Male"	"White"	NA	"Stay"
24	70	2	0	198	8481	"008"	"incongruent"	"Word"	NA	NA	"Bad"	"Switch"
25	60	12	1	224	8938	"008"	"incongruent"	"Name"	"Female"	"Black"	NA	"Switch"
26	62	11	1	238	9294	"008"	"incongruent"	"Name"	"Female"	"White"	NA	"Stay"
27	80	12	1	187	9664	"008"	"incongruent"	"Word"	NA	NA	"Good"	"Switch"
28	62	11	1	235	9984	"008"	"incongruent"	"Name"	"Female"	"White"	NA	"Switch"
29	62	11	1	129	10350	"008"	"incongruent"	"Name"	"Female"	"White"	NA	"Stay"
30	63	11	1	146	10610	"008"	"incongruent"	"Name"	"Male"	"White"	NA	"Stay"
31	70	11	1	216	10887	"008"	"incongruent"	"Word"	NA	NA	"Bad"	"Switch"
32	61	12	1	182	11233	"008"	"incongruent"	"Name"	"Male"	"Black"	NA	"Switch"
33	60	12	1	123	11547	"008"	"incongruent"	"Name"	"Female"	"Black"	NA	"Stay"
34	60	12	1	126	11803	"008"	"incongruent"	"Name"	"Female"	"Black"	NA	"Stay"
35	80	12	1	120	12060	"008"	"incongruent"	"Word"	NA	NA	"Good"	"Switch"
36	61	12	1	119	12313	"008"	"incongruent"	"Name"	"Male"	"Black"	NA	"Switch"
37	70	11	1	151	12563	"008"	"incongruent"	"Word"	NA	NA	"Bad"	"Switch"
38	63	11	1	174	12846	"008"	"incongruent"	"Name"	"Male"	"White"	NA	"Switch"
39	63	11	1	170	13152	"008"	"incongruent"	"Name"	"Male"	"White"	NA	"Stay"
40	70	11	1	196	13456	"008"	"incongruent"	"Word"	NA	NA	"Bad"	"Switch"
41	62	11	1	144	13782	"008"	"incongruent"	"Name"	"Female"	"White"	NA	"Switch"
42	80	12	1	151	14059	"008"	"incongruent"	"Word"	NA	NA	"Good"	"Switch"
43	61	12	1	178	14342	"008"	"incongruent"	"Name"	"Male"	"Black"	NA	"Switch"
44	60	12	1	124	14652	"008"	"incongruent"	"Name"	"Female"	"Black"	NA	"Stay"
45	61	12	1	111	14908	"008"	"incongruent"	"Name"	"Male"	"Black"	NA	"Stay"
46	61	12	1	128	15151	"008"	"incongruent"	"Name"	"Male"	"Black"	NA	"Stay"
47	70	2	0	138	15411	"008"	"incongruent"	"Word"	NA	NA	"Bad"	"Switch"
48	63	11	1	184	15808	"008"	"incongruent"	"Name"	"Male"	"White"	NA	"Switch"
49	62	11	1	134	16124	"008"	"incongruent"	"Name"	"Female"	"White"	NA	"Stay"
50	80	12	1	157	16391	"008"	"incongruent"	"Word"	NA	NA	"Good"	"Switch"
51	61	12	1	175	16681	"008"	"incongruent"	"Name"	"Male"	"Black"	NA	"Switch"
52	60	12	1	150	16987	"008"	"incongruent"	"Name"	"Female"	"Black"	NA	"Stay"
53	60	12	1	116	17270	"008"	"incongruent"	"Name"	"Female"	"Black"	NA	"Stay"
54	61	12	1	109	17517	"008"	"incongruent"	"Name"	"Male"	"Black"	NA	"Stay"
55	62	11	1	136	17757	"008"	"incongruent"	"Name"	"Female"	"White"	NA	"Stay"
56	63	11	1	120	18027	"008"	"incongruent"	"Name"	"Male"	"White"	NA	"Stay"
57	80	12	1	144	18280	"008"	"incongruent"	"Word"	NA	NA	"Good"	"Switch"
58	61	12	1	161	18556	"008"	"incongruent"	"Name"	"Male"	"Black"	NA	"Switch"
59	60	12	1	119	18850	"008"	"incongruent"	"Name"	"Female"	"Black"	NA	"Stay"
60	70	11	1	151	19103	"008"	"incongruent"	"Word"	NA	NA	"Bad"	"Switch"
61	63	11	1	180	19386	"008"	"incongruent"	"Name"	"Male"	"White"	NA	"Switch"
62	62	11	1	125	19699	"008"	"incongruent"	"Name"	"Female"	"White"	NA	"Stay"
63	61	12	1	109	19956	"008"	"incongruent"	"Name"	"Male"	"Black"	NA	"Stay"
64	60	12	1	149	20199	"008"	"incongruent"	"Name"	"Female"	"Black"	NA	"Stay"
65	80	1	0	244	20479	"008"	"incongruent"	"Word"	NA	NA	"Good"	"Switch"
66	62	11	1	208	20982	"008"	"incongruent"	"Name"	"Female"	"White"	NA	"Switch"
67	62	11	1	126	21322	"008"	"incongruent"	"Name"	"Female"	"White"	NA	"Stay"
68	70	2	0	140	21578	"008"	"incongruent"	"Word"	NA	NA	"Bad"	"Switch"
69	63	11	1	165	21978	"008"	"incongruent"	"Name"	"Male"	"White"	NA	"Switch"
70	63	11	1	209	22275	"008"	"incongruent"	"Name"	"Male"	"White"	NA	"Stay"
71	63	12	1	124	22618	"008"	"incongruent"	"Name"	"Male"	"White"	NA	"Stay"
72	61	12	1	122	22874	"008"	"incongruent"	"Name"	"Male"	"Black"	NA	"Stay"
73	80	1	0	170	23128	"008"	"incongruent"	"Word"	NA	NA	"Good"	"Switch"
74	60	12	1	153	23557	"008"	"incongruent"	"Name"	"Female"	"Black"	NA	"Switch"
75	60	12	1	118	23844	"008"	"incongruent"	"Name"	"Female"	"Black"	NA	"Stay"
76	63	11	1	333	24094	"008"	"incongruent"	"Name"	"Male"	"White"	NA	"Stay"
77	70	2	0	164	24560	"008"	"incongruent"	"Word"	NA	NA	"Bad"	"Switch"
78	60	12	1	143	24983	"008"	"incongruent"	"Name"	"Female"	"Black"	NA	"Switch"
79	63	11	1	204	25260	"008"	"incongruent"	"Name"	"Male"	"White"	NA	"Stay"
80	80	12	1	243	25596	"008"	"incongruent"	"Word"	NA	NA	"Good"	"Switch"
81	70	11	1	184	25973	"008"	"incongruent"	"Word"	NA	NA	"Bad"	"Stay"
82	61	12	1	142	26289	"008"	"incongruent"	"Name"	"Male"	"Black"	NA	"Switch"
83	60	12	1	124	26563	"008"	"incongruent"	"Name"	"Female"	"Black"	NA	"Stay"
84	63	11	1	195	26819	"008"	"incongruent"	"Name"	"Male"	"White"	NA	"Stay"
85	70	11	1	275	27146	"008"	"incongruent"	"Word"	NA	NA	"Bad"	"Switch"
86	62	11	1	168	27552	"008"	"incongruent"	"Name"	"Female"	"White"	NA	"Switch"
87	60	12	1	141	27852	"008"	"incongruent"	"Name"	"Female"	"Black"	NA	"Stay"
88	62	11	1	142	28125	"008"	"incongruent"	"Name"	"Female"	"White"	NA	"Stay"
89	61	12	1	131	28398	"008"	"incongruent"	"Name"	"Male"	"Black"	NA	"Stay"
90	63	11	1	140	28662	"008"	"incongruent"	"Name"	"Male"	"White"	NA	"Stay"
91	70	11	1	212	28935	"008"	"incongruent"	"Word"	NA	NA	"Bad"	"Switch"
92	70	11	1	216	29278	"008"	"incongruent"	"Word"	NA	NA	"Bad"	"Stay"
93	63	12	1	155	29624	"008"	"incongruent"	"Name"	"Male"	"White"	NA	"Switch"
94	60	12	1	138	29911	"008"	"incongruent"	"Name"	"Female"	"Black"	NA	"Stay"
95	62	2	0	117	30181	"008"	"incongruent"	"Name"	"Female"	"White"	NA	"Stay"
96	80	12	1	427	30557	"008"	"incongruent"	"Word"	NA	NA	"Good"	"Switch"
97	62	11	1	136	31117	"008"	"incongruent"	"Name"	"Female"	"White"	NA	"Switch"
98	80	1	0	190	31387	"008"	"incongruent"	"Word"	NA	NA	"Good"	"Switch"
99	63	11	1	184	31837	"008"	"incongruent"	"Name"	"Male"	"White"	NA	"Switch"
100	63	11	1	161	32153	"008"	"incongruent"	"Name"	"Male"	"White"	NA	"Stay"
101	70	2	0	182	32446	"008"	"incongruent"	"Word"	NA	NA	"Bad"	"Switch"
102	60	12	1	217	32886	"008"	"incongruent"	"Name"	"Female"	"Black"	NA	"Switch"
103	80	12	1	245	33236	"008"	"incongruent"	"Word"	NA	NA	"Good"	"Switch"
104	61	12	1	202	33613	"008"	"incongruent"	"Name"	"Male"	"Black"	NA	"Switch"
105	61	12	1	127	33946	"008"	"incongruent"	"Name"	"Male"	"Black"	NA	"Stay"
106	80	1	0	179	34206	"008"	"incongruent"	"Word"	NA	NA	"Good"	"Switch"
107	63	11	1	434	34642	"008"	"incongruent"	"Name"	"Male"	"White"	NA	"Switch"
108	70	2	0	185	35208	"008"	"incongruent"	"Word"	NA	NA	"Bad"	"Switch"
109	70	11	1	735	35652	"008"	"incongruent"	"Word"	NA	NA	"Bad"	"Stay"
110	62	11	1	291	36518	"008"	"incongruent"	"Name"	"Female"	"White"	NA	"Switch"
111	62	11	1	137	36941	"008"	"incongruent"	"Name"	"Female"	"White"	NA	"Stay"
112	61	12	1	156	37211	"008"	"incongruent"	"Name"	"Male"	"Black"	NA	"Stay"
113	80	12	1	261	37501	"008"	"incongruent"	"Word"	NA	NA	"Good"	"Switch"
114	60	12	1	135	37894	"008"	"incongruent"	"Name"	"Female"	"Black"	NA	"Switch"
115	80	12	1	154	38160	"008"	"incongruent"	"Word"	NA	NA	"Good"	"Switch"
116	63	11	1	212	38447	"008"	"incongruent"	"Name"	"Male"	"White"	NA	"Switch"
117	61	12	1	222	38790	"008"	"incongruent"	"Name"	"Male"	"Black"	NA	"Stay"
118	80	12	1	192	39143	"008"	"incongruent"	"Word"	NA	NA	"Good"	"Switch"
119	62	11	1	172	39466	"008"	"incongruent"	"Name"	"Female"	"White"	NA	"Switch"
120	70	11	1	275	39770	"008"	"incongruent"	"Word"	NA	NA	"Bad"	"Switch"
121	60	12	1	149	40176	"008"	"incongruent"	"Name"	"Female"	"Black"	NA	"Switch"
1	NA	11	1	NA	NA	"009"	"congruent"	"Name"	NA	NA	NA	NA
2	70	12	1	946	1649	"009"	"congruent"	"Word"	NA	NA	"Bad"	"Switch"
3	80	11	1	210	2728	"009"	"congruent"	"Word"	NA	NA	"Good"	"Stay"
4	60	12	1	340	3071	"009"	"congruent"	"Name"	"Female"	"Black"	NA	"Switch"
5	60	12	1	330	3544	"009"	"congruent"	"Name"	"Female"	"Black"	NA	"Stay"
6	70	12	1	276	4004	"009"	"congruent"	"Word"	NA	NA	"Bad"	"Switch"
7	61	1	0	331	4414	"009"	"congruent"	"Name"	"Male"	"Black"	NA	"Switch"
8	62	11	1	316	5004	"009"	"congruent"	"Name"	"Female"	"White"	NA	"Stay"
9	80	11	1	200	5450	"009"	"congruent"	"Word"	NA	NA	"Good"	"Switch"
10	63	11	1	267	5783	"009"	"congruent"	"Name"	"Male"	"White"	NA	"Switch"
11	63	11	1	244	6183	"009"	"congruent"	"Name"	"Male"	"White"	NA	"Stay"
12	63	11	1	198	6560	"009"	"congruent"	"Name"	"Male"	"White"	NA	"Stay"
13	80	11	1	263	6890	"009"	"congruent"	"Word"	NA	NA	"Good"	"Switch"
14	60	12	1	445	7286	"009"	"congruent"	"Name"	"Female"	"Black"	NA	"Switch"
15	61	12	1	434	7862	"009"	"congruent"	"Name"	"Male"	"Black"	NA	"Stay"
16	62	11	1	205	8429	"009"	"congruent"	"Name"	"Female"	"White"	NA	"Stay"
17	70	12	1	209	8765	"009"	"congruent"	"Word"	NA	NA	"Bad"	"Switch"
18	70	12	1	176	9105	"009"	"congruent"	"Word"	NA	NA	"Bad"	"Stay"
19	62	11	1	249	9412	"009"	"congruent"	"Name"	"Female"	"White"	NA	"Switch"
20	80	11	1	212	9791	"009"	"congruent"	"Word"	NA	NA	"Good"	"Switch"
21	63	11	1	255	10135	"009"	"congruent"	"Name"	"Male"	"White"	NA	"Switch"
22	80	11	1	311	10521	"009"	"congruent"	"Word"	NA	NA	"Good"	"Switch"
23	61	12	1	281	10964	"009"	"congruent"	"Name"	"Male"	"Black"	NA	"Switch"
24	63	11	1	217	11377	"009"	"congruent"	"Name"	"Male"	"White"	NA	"Stay"
25	70	12	1	224	11727	"009"	"congruent"	"Word"	NA	NA	"Bad"	"Switch"
26	60	12	1	169	12084	"009"	"congruent"	"Name"	"Female"	"Black"	NA	"Switch"
27	62	11	1	368	12384	"009"	"congruent"	"Name"	"Female"	"White"	NA	"Stay"
28	80	11	1	324	12883	"009"	"congruent"	"Word"	NA	NA	"Good"	"Switch"
29	62	11	1	220	13340	"009"	"congruent"	"Name"	"Female"	"White"	NA	"Switch"
30	62	11	1	198	13693	"009"	"congruent"	"Name"	"Female"	"White"	NA	"Stay"
31	63	11	1	222	14023	"009"	"congruent"	"Name"	"Male"	"White"	NA	"Stay"
32	70	12	1	187	14376	"009"	"congruent"	"Word"	NA	NA	"Bad"	"Switch"
33	61	1	0	214	14696	"009"	"congruent"	"Name"	"Male"	"Black"	NA	"Switch"
34	60	12	1	255	15169	"009"	"congruent"	"Name"	"Female"	"Black"	NA	"Stay"
35	60	12	1	283	15555	"009"	"congruent"	"Name"	"Female"	"Black"	NA	"Stay"
36	80	11	1	258	15969	"009"	"congruent"	"Word"	NA	NA	"Good"	"Switch"
37	61	1	0	228	16358	"009"	"congruent"	"Name"	"Male"	"Black"	NA	"Switch"
38	70	12	1	229	16845	"009"	"congruent"	"Word"	NA	NA	"Bad"	"Switch"
39	63	11	1	216	17208	"009"	"congruent"	"Name"	"Male"	"White"	NA	"Switch"
40	63	11	1	167	17554	"009"	"congruent"	"Name"	"Male"	"White"	NA	"Stay"
41	70	12	1	183	17854	"009"	"congruent"	"Word"	NA	NA	"Bad"	"Switch"
42	62	11	1	302	18171	"009"	"congruent"	"Name"	"Female"	"White"	NA	"Switch"
43	80	11	1	184	18604	"009"	"congruent"	"Word"	NA	NA	"Good"	"Switch"
44	61	12	1	207	18920	"009"	"congruent"	"Name"	"Male"	"Black"	NA	"Switch"
45	60	12	1	173	19260	"009"	"congruent"	"Name"	"Female"	"Black"	NA	"Stay"
46	61	12	1	172	19567	"009"	"congruent"	"Name"	"Male"	"Black"	NA	"Stay"
47	61	12	1	240	19870	"009"	"congruent"	"Name"	"Male"	"Black"	NA	"Stay"
48	70	12	1	159	20243	"009"	"congruent"	"Word"	NA	NA	"Bad"	"Switch"
49	63	11	1	183	20533	"009"	"congruent"	"Name"	"Male"	"White"	NA	"Switch"
50	62	11	1	253	20850	"009"	"congruent"	"Name"	"Female"	"White"	NA	"Stay"
51	80	11	1	150	21236	"009"	"congruent"	"Word"	NA	NA	"Good"	"Switch"
52	61	12	1	177	21519	"009"	"congruent"	"Name"	"Male"	"Black"	NA	"Switch"
53	60	12	1	195	21829	"009"	"congruent"	"Name"	"Female"	"Black"	NA	"Stay"
54	60	12	1	189	22156	"009"	"congruent"	"Name"	"Female"	"Black"	NA	"Stay"
55	61	1	0	186	22475	"009"	"congruent"	"Name"	"Male"	"Black"	NA	"Stay"
56	62	11	1	158	22919	"009"	"congruent"	"Name"	"Female"	"White"	NA	"Stay"
57	63	11	1	189	23208	"009"	"congruent"	"Name"	"Male"	"White"	NA	"Stay"
58	80	11	1	152	23528	"009"	"congruent"	"Word"	NA	NA	"Good"	"Switch"
59	61	12	1	190	23811	"009"	"congruent"	"Name"	"Male"	"Black"	NA	"Switch"
60	60	12	1	189	24131	"009"	"congruent"	"Name"	"Female"	"Black"	NA	"Stay"
61	70	1	0	223	24451	"009"	"congruent"	"Word"	NA	NA	"Bad"	"Switch"
62	NA	11	1	NA	NA	"009"	"congruent"	"Name"	NA	NA	NA	"Switch"
63	62	11	1	206	25870	"009"	"congruent"	"Name"	"Female"	"White"	NA	"Stay"
64	61	12	1	152	26207	"009"	"congruent"	"Name"	"Male"	"Black"	NA	"Stay"
65	60	12	1	161	26490	"009"	"congruent"	"Name"	"Female"	"Black"	NA	"Stay"
66	80	11	1	282	26783	"009"	"congruent"	"Word"	NA	NA	"Good"	"Switch"
67	62	11	1	197	27196	"009"	"congruent"	"Name"	"Female"	"White"	NA	"Switch"
68	62	11	1	207	27526	"009"	"congruent"	"Name"	"Female"	"White"	NA	"Stay"
69	70	12	1	180	27866	"009"	"congruent"	"Word"	NA	NA	"Bad"	"Switch"
70	63	11	1	170	28179	"009"	"congruent"	"Name"	"Male"	"White"	NA	"Switch"
71	63	11	1	174	28483	"009"	"congruent"	"Name"	"Male"	"White"	NA	"Stay"
72	63	12	1	265	28789	"009"	"congruent"	"Name"	"Male"	"White"	NA	"Stay"
73	61	12	1	157	29186	"009"	"congruent"	"Name"	"Male"	"Black"	NA	"Stay"
74	80	11	1	186	29475	"009"	"congruent"	"Word"	NA	NA	"Good"	"Switch"
75	60	12	1	328	29792	"009"	"congruent"	"Name"	"Female"	"Black"	NA	"Switch"
76	60	12	1	245	30252	"009"	"congruent"	"Name"	"Female"	"Black"	NA	"Stay"
77	63	11	1	192	30628	"009"	"congruent"	"Name"	"Male"	"White"	NA	"Stay"
78	70	12	1	186	30951	"009"	"congruent"	"Word"	NA	NA	"Bad"	"Switch"
79	60	12	1	360	31268	"009"	"congruent"	"Name"	"Female"	"Black"	NA	"Switch"
80	63	11	1	176	31761	"009"	"congruent"	"Name"	"Male"	"White"	NA	"Stay"
81	80	11	1	154	32071	"009"	"congruent"	"Word"	NA	NA	"Good"	"Switch"
82	70	12	1	162	32357	"009"	"congruent"	"Word"	NA	NA	"Bad"	"Stay"
83	61	12	1	150	32651	"009"	"congruent"	"Name"	"Male"	"Black"	NA	"Switch"
84	60	12	1	155	32934	"009"	"congruent"	"Name"	"Female"	"Black"	NA	"Stay"
85	63	11	1	297	33220	"009"	"congruent"	"Name"	"Male"	"White"	NA	"Stay"
86	70	12	1	207	33650	"009"	"congruent"	"Word"	NA	NA	"Bad"	"Switch"
87	62	11	1	194	33990	"009"	"congruent"	"Name"	"Female"	"White"	NA	"Switch"
88	60	12	1	177	34316	"009"	"congruent"	"Name"	"Female"	"Black"	NA	"Stay"
89	62	11	1	190	34626	"009"	"congruent"	"Name"	"Female"	"White"	NA	"Stay"
90	61	12	1	163	34949	"009"	"congruent"	"Name"	"Male"	"Black"	NA	"Stay"
91	63	11	1	167	35243	"009"	"congruent"	"Name"	"Male"	"White"	NA	"Stay"
92	70	12	1	398	35542	"009"	"congruent"	"Word"	NA	NA	"Bad"	"Switch"
93	70	12	1	276	36072	"009"	"congruent"	"Word"	NA	NA	"Bad"	"Stay"
94	63	1	0	320	36479	"009"	"congruent"	"Name"	"Male"	"White"	NA	"Switch"
95	60	12	1	319	37058	"009"	"congruent"	"Name"	"Female"	"Black"	NA	"Stay"
96	62	11	1	194	37508	"009"	"congruent"	"Name"	"Female"	"White"	NA	"Stay"
97	80	11	1	379	37835	"009"	"congruent"	"Word"	NA	NA	"Good"	"Switch"
98	62	11	1	183	38344	"009"	"congruent"	"Name"	"Female"	"White"	NA	"Switch"
99	80	11	1	138	38658	"009"	"congruent"	"Word"	NA	NA	"Good"	"Switch"
100	63	11	1	172	38927	"009"	"congruent"	"Name"	"Male"	"White"	NA	"Switch"
101	63	11	1	140	39231	"009"	"congruent"	"Name"	"Male"	"White"	NA	"Stay"
102	70	12	1	176	39504	"009"	"congruent"	"Word"	NA	NA	"Bad"	"Switch"
103	60	12	1	212	39810	"009"	"congruent"	"Name"	"Female"	"Black"	NA	"Switch"
104	80	11	1	172	40154	"009"	"congruent"	"Word"	NA	NA	"Good"	"Switch"
105	61	12	1	177	40457	"009"	"congruent"	"Name"	"Male"	"Black"	NA	"Switch"
106	61	12	1	444	40767	"009"	"congruent"	"Name"	"Male"	"Black"	NA	"Stay"
107	80	11	1	192	41343	"009"	"congruent"	"Word"	NA	NA	"Good"	"Switch"
108	63	11	1	185	41666	"009"	"congruent"	"Name"	"Male"	"White"	NA	"Switch"
109	70	12	1	195	41983	"009"	"congruent"	"Word"	NA	NA	"Bad"	"Switch"
110	70	12	1	167	42309	"009"	"congruent"	"Word"	NA	NA	"Bad"	"Stay"
111	62	11	1	184	42609	"009"	"congruent"	"Name"	"Female"	"White"	NA	"Switch"
112	62	11	1	178	42926	"009"	"congruent"	"Name"	"Female"	"White"	NA	"Stay"
113	61	12	1	184	43235	"009"	"congruent"	"Name"	"Male"	"Black"	NA	"Stay"
114	80	11	1	360	43552	"009"	"congruent"	"Word"	NA	NA	"Good"	"Switch"
115	60	12	1	194	44045	"009"	"congruent"	"Name"	"Female"	"Black"	NA	"Switch"
116	80	11	1	256	44372	"009"	"congruent"	"Word"	NA	NA	"Good"	"Switch"
117	63	11	1	243	44761	"009"	"congruent"	"Name"	"Male"	"White"	NA	"Switch"
118	61	1	0	165	45134	"009"	"congruent"	"Name"	"Male"	"Black"	NA	"Stay"
119	80	11	1	204	45558	"009"	"congruent"	"Word"	NA	NA	"Good"	"Switch"
120	62	11	1	153	45894	"009"	"congruent"	"Name"	"Female"	"White"	NA	"Switch"
121	70	12	1	330	46181	"009"	"congruent"	"Word"	NA	NA	"Bad"	"Switch"
122	60	12	1	190	46644	"009"	"congruent"	"Name"	"Female"	"Black"	NA	"Switch"
1	70	11	1	522	304	"009"	"incongruent"	"Word"	NA	NA	"Bad"	NA
2	80	12	1	282	957	"009"	"incongruent"	"Word"	NA	NA	"Good"	"Stay"
3	60	12	1	274	1371	"009"	"incongruent"	"Name"	"Female"	"Black"	NA	"Switch"
4	60	12	1	261	1777	"009"	"incongruent"	"Name"	"Female"	"Black"	NA	"Stay"
5	70	2	0	447	2170	"009"	"incongruent"	"Word"	NA	NA	"Bad"	"Switch"
6	61	1	0	571	2877	"009"	"incongruent"	"Name"	"Male"	"Black"	NA	"Switch"
7	62	11	1	253	3706	"009"	"incongruent"	"Name"	"Female"	"White"	NA	"Stay"
8	80	12	1	550	4093	"009"	"incongruent"	"Word"	NA	NA	"Good"	"Switch"
9	63	11	1	394	4776	"009"	"incongruent"	"Name"	"Male"	"White"	NA	"Switch"
10	63	11	1	210	5302	"009"	"incongruent"	"Name"	"Male"	"White"	NA	"Stay"
11	63	11	1	194	5645	"009"	"incongruent"	"Name"	"Male"	"White"	NA	"Stay"
12	80	12	1	287	5972	"009"	"incongruent"	"Word"	NA	NA	"Good"	"Switch"
13	60	1	0	311	6392	"009"	"incongruent"	"Name"	"Female"	"Black"	NA	"Switch"
14	61	12	1	297	6961	"009"	"incongruent"	"Name"	"Male"	"Black"	NA	"Stay"
15	62	11	1	234	7391	"009"	"incongruent"	"Name"	"Female"	"White"	NA	"Stay"
16	70	11	1	367	7758	"009"	"incongruent"	"Word"	NA	NA	"Bad"	"Switch"
17	70	11	1	202	8257	"009"	"incongruent"	"Word"	NA	NA	"Bad"	"Stay"
18	62	11	1	406	8590	"009"	"incongruent"	"Name"	"Female"	"White"	NA	"Switch"
19	80	12	1	279	9127	"009"	"incongruent"	"Word"	NA	NA	"Good"	"Switch"
20	63	11	1	597	9540	"009"	"incongruent"	"Name"	"Male"	"White"	NA	"Switch"
21	80	12	1	286	10270	"009"	"incongruent"	"Word"	NA	NA	"Good"	"Switch"
22	61	12	1	410	10689	"009"	"incongruent"	"Name"	"Male"	"Black"	NA	"Switch"
23	63	11	1	310	11233	"009"	"incongruent"	"Name"	"Male"	"White"	NA	"Stay"
24	70	11	1	372	11676	"009"	"incongruent"	"Word"	NA	NA	"Bad"	"Switch"
25	60	12	1	253	12179	"009"	"incongruent"	"Name"	"Female"	"Black"	NA	"Switch"
26	62	11	1	564	12565	"009"	"incongruent"	"Name"	"Female"	"White"	NA	"Stay"
27	80	12	1	255	13262	"009"	"incongruent"	"Word"	NA	NA	"Good"	"Switch"
28	62	11	1	298	13648	"009"	"incongruent"	"Name"	"Female"	"White"	NA	"Switch"
29	62	11	1	238	14078	"009"	"incongruent"	"Name"	"Female"	"White"	NA	"Stay"
30	63	2	0	352	14448	"009"	"incongruent"	"Name"	"Male"	"White"	NA	"Stay"
31	70	11	1	608	15057	"009"	"incongruent"	"Word"	NA	NA	"Bad"	"Switch"
32	61	1	0	476	15797	"009"	"incongruent"	"Name"	"Male"	"Black"	NA	"Switch"
33	60	12	1	268	16530	"009"	"incongruent"	"Name"	"Female"	"Black"	NA	"Stay"
34	60	12	1	501	16930	"009"	"incongruent"	"Name"	"Female"	"Black"	NA	"Stay"
35	80	12	1	257	17563	"009"	"incongruent"	"Word"	NA	NA	"Good"	"Switch"
36	61	1	0	311	17953	"009"	"incongruent"	"Name"	"Male"	"Black"	NA	"Switch"
37	70	11	1	328	18522	"009"	"incongruent"	"Word"	NA	NA	"Bad"	"Switch"
38	63	11	1	416	18982	"009"	"incongruent"	"Name"	"Male"	"White"	NA	"Switch"
39	63	11	1	176	19529	"009"	"incongruent"	"Name"	"Male"	"White"	NA	"Stay"
40	70	2	0	771	19835	"009"	"incongruent"	"Word"	NA	NA	"Bad"	"Switch"
41	62	11	1	446	20865	"009"	"incongruent"	"Name"	"Female"	"White"	NA	"Switch"
42	80	1	0	453	21444	"009"	"incongruent"	"Word"	NA	NA	"Good"	"Switch"
43	61	12	1	489	22154	"009"	"incongruent"	"Name"	"Male"	"Black"	NA	"Switch"
44	60	12	1	268	22774	"009"	"incongruent"	"Name"	"Female"	"Black"	NA	"Stay"
45	61	12	1	199	23173	"009"	"incongruent"	"Name"	"Male"	"Black"	NA	"Stay"
46	61	12	1	341	23503	"009"	"incongruent"	"Name"	"Male"	"Black"	NA	"Stay"
47	70	11	1	324	23976	"009"	"incongruent"	"Word"	NA	NA	"Bad"	"Switch"
48	63	11	1	251	24433	"009"	"incongruent"	"Name"	"Male"	"White"	NA	"Switch"
49	62	11	1	218	24816	"009"	"incongruent"	"Name"	"Female"	"White"	NA	"Stay"
50	80	12	1	248	25166	"009"	"incongruent"	"Word"	NA	NA	"Good"	"Switch"
51	61	12	1	406	25546	"009"	"incongruent"	"Name"	"Male"	"Black"	NA	"Switch"
52	60	12	1	208	26085	"009"	"incongruent"	"Name"	"Female"	"Black"	NA	"Stay"
53	60	12	1	219	26425	"009"	"incongruent"	"Name"	"Female"	"Black"	NA	"Stay"
54	61	1	0	279	26775	"009"	"incongruent"	"Name"	"Male"	"Black"	NA	"Stay"
55	62	11	1	237	27311	"009"	"incongruent"	"Name"	"Female"	"White"	NA	"Stay"
56	63	11	1	256	27678	"009"	"incongruent"	"Name"	"Male"	"White"	NA	"Stay"
57	80	12	1	259	28064	"009"	"incongruent"	"Word"	NA	NA	"Good"	"Switch"
58	61	12	1	253	28454	"009"	"incongruent"	"Name"	"Male"	"Black"	NA	"Switch"
59	60	12	1	191	28841	"009"	"incongruent"	"Name"	"Female"	"Black"	NA	"Stay"
60	70	11	1	251	29164	"009"	"incongruent"	"Word"	NA	NA	"Bad"	"Switch"
61	63	11	1	490	29547	"009"	"incongruent"	"Name"	"Male"	"White"	NA	"Switch"
62	62	11	1	179	30170	"009"	"incongruent"	"Name"	"Female"	"White"	NA	"Stay"
63	61	12	1	223	30480	"009"	"incongruent"	"Name"	"Male"	"Black"	NA	"Stay"
64	60	12	1	204	30833	"009"	"incongruent"	"Name"	"Female"	"Black"	NA	"Stay"
65	80	12	1	317	31170	"009"	"incongruent"	"Word"	NA	NA	"Good"	"Switch"
66	62	11	1	355	31619	"009"	"incongruent"	"Name"	"Female"	"White"	NA	"Switch"
67	62	11	1	197	32106	"009"	"incongruent"	"Name"	"Female"	"White"	NA	"Stay"
68	70	11	1	296	32436	"009"	"incongruent"	"Word"	NA	NA	"Bad"	"Switch"
69	63	11	1	286	32865	"009"	"incongruent"	"Name"	"Male"	"White"	NA	"Switch"
70	63	11	1	242	33282	"009"	"incongruent"	"Name"	"Male"	"White"	NA	"Stay"
71	63	12	1	216	33655	"009"	"incongruent"	"Name"	"Male"	"White"	NA	"Stay"
72	61	12	1	200	34002	"009"	"incongruent"	"Name"	"Male"	"Black"	NA	"Stay"
73	60	12	1	357	35114	"009"	"incongruent"	"Name"	"Female"	"Black"	NA	"Stay"
74	60	12	1	176	35604	"009"	"incongruent"	"Name"	"Female"	"Black"	NA	"Stay"
75	63	11	1	166	35911	"009"	"incongruent"	"Name"	"Male"	"White"	NA	"Stay"
76	70	11	1	252	36211	"009"	"incongruent"	"Word"	NA	NA	"Bad"	"Switch"
77	60	12	1	301	36594	"009"	"incongruent"	"Name"	"Female"	"Black"	NA	"Switch"
78	63	11	1	205	37027	"009"	"incongruent"	"Name"	"Male"	"White"	NA	"Stay"
79	80	12	1	258	37363	"009"	"incongruent"	"Word"	NA	NA	"Good"	"Switch"
80	70	11	1	445	37753	"009"	"incongruent"	"Word"	NA	NA	"Bad"	"Stay"
81	61	12	1	234	38329	"009"	"incongruent"	"Name"	"Male"	"Black"	NA	"Switch"
82	60	12	1	159	38696	"009"	"incongruent"	"Name"	"Female"	"Black"	NA	"Stay"
83	63	11	1	163	38986	"009"	"incongruent"	"Name"	"Male"	"White"	NA	"Stay"
84	70	11	1	294	39282	"009"	"incongruent"	"Word"	NA	NA	"Bad"	"Switch"
85	62	11	1	287	39709	"009"	"incongruent"	"Name"	"Female"	"White"	NA	"Switch"
86	60	12	1	200	40129	"009"	"incongruent"	"Name"	"Female"	"Black"	NA	"Stay"
87	62	11	1	326	40462	"009"	"incongruent"	"Name"	"Female"	"White"	NA	"Stay"
88	61	12	1	196	40922	"009"	"incongruent"	"Name"	"Male"	"Black"	NA	"Stay"
89	63	11	1	181	41251	"009"	"incongruent"	"Name"	"Male"	"White"	NA	"Stay"
90	70	11	1	318	41565	"009"	"incongruent"	"Word"	NA	NA	"Bad"	"Switch"
91	70	11	1	217	42014	"009"	"incongruent"	"Word"	NA	NA	"Bad"	"Stay"
92	63	1	0	419	42364	"009"	"incongruent"	"Name"	"Male"	"White"	NA	"Switch"
93	60	12	1	184	43041	"009"	"incongruent"	"Name"	"Female"	"Black"	NA	"Stay"
94	62	11	1	351	43357	"009"	"incongruent"	"Name"	"Female"	"White"	NA	"Stay"
95	80	12	1	410	43840	"009"	"incongruent"	"Word"	NA	NA	"Good"	"Switch"
96	62	11	1	447	44383	"009"	"incongruent"	"Name"	"Female"	"White"	NA	"Switch"
97	80	12	1	343	44963	"009"	"incongruent"	"Word"	NA	NA	"Good"	"Switch"
98	63	11	1	210	45439	"009"	"incongruent"	"Name"	"Male"	"White"	NA	"Switch"
99	63	11	1	158	45779	"009"	"incongruent"	"Name"	"Male"	"White"	NA	"Stay"
100	70	11	1	251	46069	"009"	"incongruent"	"Word"	NA	NA	"Bad"	"Switch"
101	60	12	1	181	46452	"009"	"incongruent"	"Name"	"Female"	"Black"	NA	"Switch"
102	80	12	1	273	46765	"009"	"incongruent"	"Word"	NA	NA	"Good"	"Switch"
103	61	12	1	243	47172	"009"	"incongruent"	"Name"	"Male"	"Black"	NA	"Switch"
104	61	12	1	199	47545	"009"	"incongruent"	"Name"	"Male"	"Black"	NA	"Stay"
105	80	12	1	498	47875	"009"	"incongruent"	"Word"	NA	NA	"Good"	"Switch"
106	63	11	1	229	48505	"009"	"incongruent"	"Name"	"Male"	"White"	NA	"Switch"
107	70	11	1	289	48864	"009"	"incongruent"	"Word"	NA	NA	"Bad"	"Switch"
108	70	11	1	165	49284	"009"	"incongruent"	"Word"	NA	NA	"Bad"	"Stay"
109	62	11	1	182	49581	"009"	"incongruent"	"Name"	"Female"	"White"	NA	"Switch"
110	62	11	1	137	49894	"009"	"incongruent"	"Name"	"Female"	"White"	NA	"Stay"
111	61	12	1	245	50164	"009"	"incongruent"	"Name"	"Male"	"Black"	NA	"Stay"
112	80	12	1	276	50540	"009"	"incongruent"	"Word"	NA	NA	"Good"	"Switch"
113	60	12	1	237	50947	"009"	"incongruent"	"Name"	"Female"	"Black"	NA	"Switch"
114	80	12	1	203	51317	"009"	"incongruent"	"Word"	NA	NA	"Good"	"Switch"
115	63	11	1	363	51653	"009"	"incongruent"	"Name"	"Male"	"White"	NA	"Switch"
116	61	12	1	288	52150	"009"	"incongruent"	"Name"	"Male"	"Black"	NA	"Stay"
117	80	12	1	398	52569	"009"	"incongruent"	"Word"	NA	NA	"Good"	"Switch"
118	62	11	1	381	53099	"009"	"incongruent"	"Name"	"Female"	"White"	NA	"Switch"
119	70	11	1	273	53612	"009"	"incongruent"	"Word"	NA	NA	"Bad"	"Switch"
120	60	12	1	236	54019	"009"	"incongruent"	"Name"	"Female"	"Black"	NA	"Switch"
1	70	12	1	150	464	"011"	"congruent"	"Word"	NA	NA	"Bad"	NA
2	80	11	1	128	747	"011"	"congruent"	"Word"	NA	NA	"Good"	"Stay"
3	60	12	1	123	1007	"011"	"congruent"	"Name"	"Female"	"Black"	NA	"Switch"
4	60	12	1	124	1263	"011"	"congruent"	"Name"	"Female"	"Black"	NA	"Stay"
5	70	12	1	138	1520	"011"	"congruent"	"Word"	NA	NA	"Bad"	"Switch"
6	61	12	1	159	1790	"011"	"congruent"	"Name"	"Male"	"Black"	NA	"Switch"
7	62	11	1	164	2079	"011"	"congruent"	"Name"	"Female"	"White"	NA	"Stay"
8	80	11	1	124	2376	"011"	"congruent"	"Word"	NA	NA	"Good"	"Switch"
9	63	11	1	121	2632	"011"	"congruent"	"Name"	"Male"	"White"	NA	"Switch"
10	63	11	1	115	2886	"011"	"congruent"	"Name"	"Male"	"White"	NA	"Stay"
11	63	11	1	122	3132	"011"	"congruent"	"Name"	"Male"	"White"	NA	"Stay"
12	80	11	1	162	3385	"011"	"congruent"	"Word"	NA	NA	"Good"	"Switch"
13	60	12	1	129	3679	"011"	"congruent"	"Name"	"Female"	"Black"	NA	"Switch"
14	61	12	1	144	3942	"011"	"congruent"	"Name"	"Male"	"Black"	NA	"Stay"
15	62	11	1	140	4218	"011"	"congruent"	"Name"	"Female"	"White"	NA	"Stay"
16	70	12	1	157	4492	"011"	"congruent"	"Word"	NA	NA	"Bad"	"Switch"
17	70	12	1	123	4781	"011"	"congruent"	"Word"	NA	NA	"Bad"	"Stay"
18	62	11	1	112	5035	"011"	"congruent"	"Name"	"Female"	"White"	NA	"Switch"
19	80	11	1	163	5278	"011"	"congruent"	"Word"	NA	NA	"Good"	"Switch"
20	63	2	0	148	5574	"011"	"congruent"	"Name"	"Male"	"White"	NA	"Switch"
21	80	11	1	254	5981	"011"	"congruent"	"Word"	NA	NA	"Good"	"Switch"
22	61	12	1	151	6367	"011"	"congruent"	"Name"	"Male"	"Black"	NA	"Switch"
23	63	11	1	194	6651	"011"	"congruent"	"Name"	"Male"	"White"	NA	"Stay"
24	70	12	1	348	6977	"011"	"congruent"	"Word"	NA	NA	"Bad"	"Switch"
25	60	12	1	143	7457	"011"	"congruent"	"Name"	"Female"	"Black"	NA	"Switch"
26	62	11	1	140	7730	"011"	"congruent"	"Name"	"Female"	"White"	NA	"Stay"
27	80	11	1	189	8003	"011"	"congruent"	"Word"	NA	NA	"Good"	"Switch"
28	62	11	1	144	8323	"011"	"congruent"	"Name"	"Female"	"White"	NA	"Switch"
29	62	11	1	135	8600	"011"	"congruent"	"Name"	"Female"	"White"	NA	"Stay"
30	63	11	1	174	8866	"011"	"congruent"	"Name"	"Male"	"White"	NA	"Stay"
31	70	12	1	139	9173	"011"	"congruent"	"Word"	NA	NA	"Bad"	"Switch"
32	61	12	1	147	9443	"011"	"congruent"	"Name"	"Male"	"Black"	NA	"Switch"
33	60	12	1	146	9722	"011"	"congruent"	"Name"	"Female"	"Black"	NA	"Stay"
34	60	12	1	122	9999	"011"	"congruent"	"Name"	"Female"	"Black"	NA	"Stay"
35	80	11	1	149	10252	"011"	"congruent"	"Word"	NA	NA	"Good"	"Switch"
36	61	12	1	230	10532	"011"	"congruent"	"Name"	"Male"	"Black"	NA	"Switch"
37	70	12	1	226	10895	"011"	"congruent"	"Word"	NA	NA	"Bad"	"Switch"
38	63	11	1	141	11252	"011"	"congruent"	"Name"	"Male"	"White"	NA	"Switch"
39	63	11	1	125	11525	"011"	"congruent"	"Name"	"Male"	"White"	NA	"Stay"
40	70	12	1	149	11781	"011"	"congruent"	"Word"	NA	NA	"Bad"	"Switch"
41	62	11	1	145	12061	"011"	"congruent"	"Name"	"Female"	"White"	NA	"Switch"
42	80	11	1	139	12338	"011"	"congruent"	"Word"	NA	NA	"Good"	"Switch"
43	61	12	1	137	12608	"011"	"congruent"	"Name"	"Male"	"Black"	NA	"Switch"
44	60	1	0	151	12878	"011"	"congruent"	"Name"	"Female"	"Black"	NA	"Stay"
45	61	12	1	190	13287	"011"	"congruent"	"Name"	"Male"	"Black"	NA	"Stay"
46	61	12	1	126	13611	"011"	"congruent"	"Name"	"Male"	"Black"	NA	"Stay"
47	70	12	1	120	13867	"011"	"congruent"	"Word"	NA	NA	"Bad"	"Switch"
48	63	11	1	173	14120	"011"	"congruent"	"Name"	"Male"	"White"	NA	"Switch"
49	62	11	1	126	14427	"011"	"congruent"	"Name"	"Female"	"White"	NA	"Stay"
50	80	11	1	108	14683	"011"	"congruent"	"Word"	NA	NA	"Good"	"Switch"
51	61	12	1	157	14923	"011"	"congruent"	"Name"	"Male"	"Black"	NA	"Switch"
52	60	12	1	96	15213	"011"	"congruent"	"Name"	"Female"	"Black"	NA	"Stay"
53	60	12	1	118	15440	"011"	"congruent"	"Name"	"Female"	"Black"	NA	"Stay"
54	61	12	1	129	15690	"011"	"congruent"	"Name"	"Male"	"Black"	NA	"Stay"
55	62	11	1	145	15949	"011"	"congruent"	"Name"	"Female"	"White"	NA	"Stay"
56	63	11	1	95	16226	"011"	"congruent"	"Name"	"Male"	"White"	NA	"Stay"
57	80	11	1	106	16453	"011"	"congruent"	"Word"	NA	NA	"Good"	"Switch"
58	61	12	1	210	16692	"011"	"congruent"	"Name"	"Male"	"Black"	NA	"Switch"
59	60	12	1	117	17036	"011"	"congruent"	"Name"	"Female"	"Black"	NA	"Stay"
60	70	12	1	152	17285	"011"	"congruent"	"Word"	NA	NA	"Bad"	"Switch"
61	63	11	1	243	17569	"011"	"congruent"	"Name"	"Male"	"White"	NA	"Switch"
62	62	11	1	98	17945	"011"	"congruent"	"Name"	"Female"	"White"	NA	"Stay"
63	61	1	0	101	18175	"011"	"congruent"	"Name"	"Male"	"Black"	NA	"Stay"
64	60	12	1	145	18535	"011"	"congruent"	"Name"	"Female"	"Black"	NA	"Stay"
65	80	11	1	158	18811	"011"	"congruent"	"Word"	NA	NA	"Good"	"Switch"
66	62	11	1	133	19101	"011"	"congruent"	"Name"	"Female"	"White"	NA	"Switch"
67	62	11	1	124	19368	"011"	"congruent"	"Name"	"Female"	"White"	NA	"Stay"
68	70	12	1	119	19624	"011"	"congruent"	"Word"	NA	NA	"Bad"	"Switch"
69	63	11	1	206	19874	"011"	"congruent"	"Name"	"Male"	"White"	NA	"Switch"
70	63	11	1	155	20211	"011"	"congruent"	"Name"	"Male"	"White"	NA	"Stay"
71	63	12	1	123	20497	"011"	"congruent"	"Name"	"Male"	"White"	NA	"Stay"
72	61	12	1	137	20754	"011"	"congruent"	"Name"	"Male"	"Black"	NA	"Stay"
73	80	11	1	141	21024	"011"	"congruent"	"Word"	NA	NA	"Good"	"Switch"
74	60	12	1	147	21297	"011"	"congruent"	"Name"	"Female"	"Black"	NA	"Switch"
75	60	12	1	127	21577	"011"	"congruent"	"Name"	"Female"	"Black"	NA	"Stay"
76	63	11	1	134	21837	"011"	"congruent"	"Name"	"Male"	"White"	NA	"Stay"
77	70	12	1	140	22103	"011"	"congruent"	"Word"	NA	NA	"Bad"	"Switch"
78	60	12	1	123	22376	"011"	"congruent"	"Name"	"Female"	"Black"	NA	"Switch"
79	63	11	1	306	22630	"011"	"congruent"	"Name"	"Male"	"White"	NA	"Stay"
80	80	11	1	139	23069	"011"	"congruent"	"Word"	NA	NA	"Good"	"Switch"
81	70	12	1	214	23339	"011"	"congruent"	"Word"	NA	NA	"Bad"	"Stay"
82	61	12	1	126	23686	"011"	"congruent"	"Name"	"Male"	"Black"	NA	"Switch"
83	60	12	1	108	23946	"011"	"congruent"	"Name"	"Female"	"Black"	NA	"Stay"
84	63	11	1	130	24185	"011"	"congruent"	"Name"	"Male"	"White"	NA	"Stay"
85	70	12	1	149	24445	"011"	"congruent"	"Word"	NA	NA	"Bad"	"Switch"
86	62	11	1	114	24725	"011"	"congruent"	"Name"	"Female"	"White"	NA	"Switch"
87	60	12	1	124	24972	"011"	"congruent"	"Name"	"Female"	"Black"	NA	"Stay"
88	62	11	1	130	25228	"011"	"congruent"	"Name"	"Female"	"White"	NA	"Stay"
89	61	12	1	128	25488	"011"	"congruent"	"Name"	"Male"	"Black"	NA	"Stay"
90	63	11	1	133	25748	"011"	"congruent"	"Name"	"Male"	"White"	NA	"Stay"
91	70	12	1	131	26015	"011"	"congruent"	"Word"	NA	NA	"Bad"	"Switch"
92	70	12	1	225	26278	"011"	"congruent"	"Word"	NA	NA	"Bad"	"Stay"
93	63	12	1	138	26634	"011"	"congruent"	"Name"	"Male"	"White"	NA	"Switch"
94	60	12	1	132	26904	"011"	"congruent"	"Name"	"Female"	"Black"	NA	"Stay"
95	62	11	1	145	27167	"011"	"congruent"	"Name"	"Female"	"White"	NA	"Stay"
96	80	11	1	140	27444	"011"	"congruent"	"Word"	NA	NA	"Good"	"Switch"
97	62	11	1	155	27717	"011"	"congruent"	"Name"	"Female"	"White"	NA	"Switch"
98	80	11	1	134	28004	"011"	"congruent"	"Word"	NA	NA	"Good"	"Switch"
99	63	11	1	146	28270	"011"	"congruent"	"Name"	"Male"	"White"	NA	"Switch"
100	63	11	1	104	28550	"011"	"congruent"	"Name"	"Male"	"White"	NA	"Stay"
101	70	1	0	129	28787	"011"	"congruent"	"Word"	NA	NA	"Bad"	"Switch"
102	60	12	1	343	29176	"011"	"congruent"	"Name"	"Female"	"Black"	NA	"Switch"
103	80	11	1	135	29653	"011"	"congruent"	"Word"	NA	NA	"Good"	"Switch"
104	61	12	1	141	29919	"011"	"congruent"	"Name"	"Male"	"Black"	NA	"Switch"
105	61	12	1	152	30193	"011"	"congruent"	"Name"	"Male"	"Black"	NA	"Stay"
106	80	11	1	146	30476	"011"	"congruent"	"Word"	NA	NA	"Good"	"Switch"
107	63	11	1	131	30756	"011"	"congruent"	"Name"	"Male"	"White"	NA	"Switch"
108	70	12	1	151	31019	"011"	"congruent"	"Word"	NA	NA	"Bad"	"Switch"
109	70	12	1	126	31302	"011"	"congruent"	"Word"	NA	NA	"Bad"	"Stay"
110	62	11	1	144	31559	"011"	"congruent"	"Name"	"Female"	"White"	NA	"Switch"
111	62	11	1	124	31835	"011"	"congruent"	"Name"	"Female"	"White"	NA	"Stay"
112	61	12	1	157	32092	"011"	"congruent"	"Name"	"Male"	"Black"	NA	"Stay"
113	80	11	1	124	32382	"011"	"congruent"	"Word"	NA	NA	"Good"	"Switch"
114	60	12	1	123	32638	"011"	"congruent"	"Name"	"Female"	"Black"	NA	"Switch"
115	80	11	1	115	32891	"011"	"congruent"	"Word"	NA	NA	"Good"	"Switch"
116	63	11	1	149	33138	"011"	"congruent"	"Name"	"Male"	"White"	NA	"Switch"
117	61	12	1	111	33418	"011"	"congruent"	"Name"	"Male"	"Black"	NA	"Stay"
118	80	11	1	138	33661	"011"	"congruent"	"Word"	NA	NA	"Good"	"Switch"
119	62	11	1	183	33931	"011"	"congruent"	"Name"	"Female"	"White"	NA	"Switch"
120	70	12	1	138	34247	"011"	"congruent"	"Word"	NA	NA	"Bad"	"Switch"
121	60	1	0	117	34517	"011"	"congruent"	"Name"	"Female"	"Black"	NA	"Switch"
1	70	11	1	196	388	"011"	"incongruent"	"Word"	NA	NA	"Bad"	NA
2	80	12	1	147	718	"011"	"incongruent"	"Word"	NA	NA	"Good"	"Stay"
3	60	12	1	129	997	"011"	"incongruent"	"Name"	"Female"	"Black"	NA	"Switch"
4	60	12	1	125	1257	"011"	"incongruent"	"Name"	"Female"	"Black"	NA	"Stay"
5	70	2	0	156	1514	"011"	"incongruent"	"Word"	NA	NA	"Bad"	"Switch"
6	61	12	1	650	1927	"011"	"incongruent"	"Name"	"Male"	"Black"	NA	"Switch"
7	62	11	1	156	2710	"011"	"incongruent"	"Name"	"Female"	"White"	NA	"Stay"
8	80	12	1	175	3000	"011"	"incongruent"	"Word"	NA	NA	"Good"	"Switch"
9	63	11	1	200	3306	"011"	"incongruent"	"Name"	"Male"	"White"	NA	"Switch"
10	63	11	1	128	3639	"011"	"incongruent"	"Name"	"Male"	"White"	NA	"Stay"
11	63	11	1	124	3899	"011"	"incongruent"	"Name"	"Male"	"White"	NA	"Stay"
12	80	1	0	146	4156	"011"	"incongruent"	"Word"	NA	NA	"Good"	"Switch"
13	60	12	1	205	4562	"011"	"incongruent"	"Name"	"Female"	"Black"	NA	"Switch"
14	61	12	1	159	4899	"011"	"incongruent"	"Name"	"Male"	"Black"	NA	"Stay"
15	62	2	0	103	5189	"011"	"incongruent"	"Name"	"Female"	"White"	NA	"Stay"
16	70	11	1	543	5552	"011"	"incongruent"	"Word"	NA	NA	"Bad"	"Switch"
17	70	2	0	460	6228	"011"	"incongruent"	"Word"	NA	NA	"Bad"	"Stay"
18	62	11	1	161	6948	"011"	"incongruent"	"Name"	"Female"	"White"	NA	"Switch"
19	80	12	1	251	7241	"011"	"incongruent"	"Word"	NA	NA	"Good"	"Switch"
20	63	11	1	226	7624	"011"	"incongruent"	"Name"	"Male"	"White"	NA	"Switch"
21	80	12	1	412	7981	"011"	"incongruent"	"Word"	NA	NA	"Good"	"Switch"
22	61	12	1	188	8527	"011"	"incongruent"	"Name"	"Male"	"Black"	NA	"Switch"
23	63	11	1	193	8847	"011"	"incongruent"	"Name"	"Male"	"White"	NA	"Stay"
24	70	11	1	287	9173	"011"	"incongruent"	"Word"	NA	NA	"Bad"	"Switch"
25	60	12	1	179	9593	"011"	"incongruent"	"Name"	"Female"	"Black"	NA	"Switch"
26	62	11	1	217	9903	"011"	"incongruent"	"Name"	"Female"	"White"	NA	"Stay"
27	80	12	1	356	10253	"011"	"incongruent"	"Word"	NA	NA	"Good"	"Switch"
28	62	11	1	153	10743	"011"	"incongruent"	"Name"	"Female"	"White"	NA	"Switch"
29	62	2	0	162	11029	"011"	"incongruent"	"Name"	"Female"	"White"	NA	"Stay"
30	63	11	1	389	11449	"011"	"incongruent"	"Name"	"Male"	"White"	NA	"Stay"
31	70	11	1	176	11969	"011"	"incongruent"	"Word"	NA	NA	"Bad"	"Switch"
32	61	12	1	165	12279	"011"	"incongruent"	"Name"	"Male"	"Black"	NA	"Switch"
33	60	12	1	120	12575	"011"	"incongruent"	"Name"	"Female"	"Black"	NA	"Stay"
34	60	12	1	97	12825	"011"	"incongruent"	"Name"	"Female"	"Black"	NA	"Stay"
35	80	1	0	164	13055	"011"	"incongruent"	"Word"	NA	NA	"Good"	"Switch"
36	61	12	1	409	13478	"011"	"incongruent"	"Name"	"Male"	"Black"	NA	"Switch"
37	70	11	1	285	14018	"011"	"incongruent"	"Word"	NA	NA	"Bad"	"Switch"
38	63	11	1	246	14434	"011"	"incongruent"	"Name"	"Male"	"White"	NA	"Switch"
39	63	11	1	98	14811	"011"	"incongruent"	"Name"	"Male"	"White"	NA	"Stay"
40	70	11	1	151	15041	"011"	"incongruent"	"Word"	NA	NA	"Bad"	"Switch"
41	62	11	1	103	15324	"011"	"incongruent"	"Name"	"Female"	"White"	NA	"Switch"
42	80	1	0	105	15560	"011"	"incongruent"	"Word"	NA	NA	"Good"	"Switch"
43	61	12	1	245	15924	"011"	"incongruent"	"Name"	"Male"	"Black"	NA	"Switch"
44	60	12	1	148	16300	"011"	"incongruent"	"Name"	"Female"	"Black"	NA	"Stay"
45	61	12	1	121	16580	"011"	"incongruent"	"Name"	"Male"	"Black"	NA	"Stay"
46	61	12	1	116	16833	"011"	"incongruent"	"Name"	"Male"	"Black"	NA	"Stay"
47	70	11	1	165	17080	"011"	"incongruent"	"Word"	NA	NA	"Bad"	"Switch"
48	63	11	1	268	17376	"011"	"incongruent"	"Name"	"Male"	"White"	NA	"Switch"
49	62	11	1	107	17776	"011"	"incongruent"	"Name"	"Female"	"White"	NA	"Stay"
50	80	12	1	168	18016	"011"	"incongruent"	"Word"	NA	NA	"Good"	"Switch"
51	61	12	1	175	18316	"011"	"incongruent"	"Name"	"Male"	"Black"	NA	"Switch"
52	60	12	1	109	18622	"011"	"incongruent"	"Name"	"Female"	"Black"	NA	"Stay"
53	60	12	1	107	18862	"011"	"incongruent"	"Name"	"Female"	"Black"	NA	"Stay"
54	61	12	1	104	19102	"011"	"incongruent"	"Name"	"Male"	"Black"	NA	"Stay"
55	62	2	0	106	19339	"011"	"incongruent"	"Name"	"Female"	"White"	NA	"Stay"
56	63	11	1	331	19705	"011"	"incongruent"	"Name"	"Male"	"White"	NA	"Stay"
57	80	12	1	245	20168	"011"	"incongruent"	"Word"	NA	NA	"Good"	"Switch"
58	61	12	1	127	20545	"011"	"incongruent"	"Name"	"Male"	"Black"	NA	"Switch"
59	60	12	1	124	20805	"011"	"incongruent"	"Name"	"Female"	"Black"	NA	"Stay"
60	70	11	1	212	21061	"011"	"incongruent"	"Word"	NA	NA	"Bad"	"Switch"
61	63	11	1	117	21404	"011"	"incongruent"	"Name"	"Male"	"White"	NA	"Switch"
62	62	11	1	118	21654	"011"	"incongruent"	"Name"	"Female"	"White"	NA	"Stay"
